Instruction,Word,song,valence,arousal,affectcat,songmark,pracwords.thisRepN,pracwords.thisTrialN,pracwords.thisN,pracwords.thisIndex,songtrials.thisRepN,songtrials.thisTrialN,songtrials.thisN,songtrials.thisIndex,words.thisRepN,words.thisTrialN,words.thisN,words.thisIndex,begin.keys,begin.rt,arousalkey.keys,arousalkey.rt,valencekey.keys,valencekey.rt,likekey.keys,likekey.rt,WordResponse.keys,WordResponse.rt,key_resp_2.keys,key_resp_2.rt,participant,session,date,expName,psychopyVersion,frameRate,
,,,,,,,,,,,,,,,,,,,space,14.033734456003003,,,,,,,,,,,110,001,2019_Sep_10_1309,MusicAffectPsychophysiology2019,3.0.5,None,
,,,,,,,,,,,,,,,,,,,,,4,9.967141674998857,,,,,,,,,110,001,2019_Sep_10_1309,MusicAffectPsychophysiology2019,3.0.5,None,
,,,,,,,,,,,,,,,,,,,,,,,4,4.652614631995675,,,,,,,110,001,2019_Sep_10_1309,MusicAffectPsychophysiology2019,3.0.5,None,
,,,,,,,,,,,,,,,,,,,,,,,,,4,4.4855537389958045,,,,,110,001,2019_Sep_10_1309,MusicAffectPsychophysiology2019,3.0.5,None,
To what extent did the music make you feel ,ANXIOUS ,,,,,,0,0,0,1,,,,,,,,,,,,,,,,,1,5.384500117004791,,,110,001,2019_Sep_10_1309,MusicAffectPsychophysiology2019,3.0.5,None,
To what extent did the music make you feel ,EXCITED,,,,,,0,1,1,7,,,,,,,,,,,,,,,,,2,4.85271613200166,,,110,001,2019_Sep_10_1309,MusicAffectPsychophysiology2019,3.0.5,None,
To what extent did the music make you feel ,ALERT,,,,,,0,2,2,8,,,,,,,,,,,,,,,,,1,2.6973446589981904,,,110,001,2019_Sep_10_1309,MusicAffectPsychophysiology2019,3.0.5,None,
To what extent did the music make you feel ,ANGRY,,,,,,0,3,3,2,,,,,,,,,,,,,,,,,1,1.9363374309978099,,,110,001,2019_Sep_10_1309,MusicAffectPsychophysiology2019,3.0.5,None,
To what extent did the music make you feel ,SCARED,,,,,,0,4,4,11,,,,,,,,,,,,,,,,,1,0.7687731829937547,,,110,001,2019_Sep_10_1309,MusicAffectPsychophysiology2019,3.0.5,None,
To what extent did the music make you feel ,HAPPY,,,,,,0,5,5,6,,,,,,,,,,,,,,,,,4,2.2502975259994855,,,110,001,2019_Sep_10_1309,MusicAffectPsychophysiology2019,3.0.5,None,
To what extent did the music make you feel ,FRUSTRATED,,,,,,0,6,6,3,,,,,,,,,,,,,,,,,1,2.2198236629992607,,,110,001,2019_Sep_10_1309,MusicAffectPsychophysiology2019,3.0.5,None,
To what extent did the music make you feel ,ASHAMED,,,,,,0,7,7,4,,,,,,,,,,,,,,,,,1,2.3027347089955583,,,110,001,2019_Sep_10_1309,MusicAffectPsychophysiology2019,3.0.5,None,
To what extent did the music make you feel ,SAD,,,,,,0,8,8,0,,,,,,,,,,,,,,,,,1,1.2335866499997792,,,110,001,2019_Sep_10_1309,MusicAffectPsychophysiology2019,3.0.5,None,
To what extent did the music make you feel ,TENDER,,,,,,0,9,9,10,,,,,,,,,,,,,,,,,1,3.152753030000895,,,110,001,2019_Sep_10_1309,MusicAffectPsychophysiology2019,3.0.5,None,
To what extent did the music make you feel ,ACTIVE,,,,,,0,10,10,9,,,,,,,,,,,,,,,,,3,2.8023965950051206,,,110,001,2019_Sep_10_1309,MusicAffectPsychophysiology2019,3.0.5,None,
To what extent did the music make you feel ,GUILTY,,,,,,0,11,11,5,,,,,,,,,,,,,,,,,1,1.3036627849942306,,,110,001,2019_Sep_10_1309,MusicAffectPsychophysiology2019,3.0.5,None,
To what extent did the music make you feel ,ACTIVE,30MonoWAV/30MonoS3.wav,1,1,3,11,,,,,0,0,0,10,0,0,0,9,,,1,18.46822605899797,1,6.185955979002756,2,7.266740386003221,1,4.506535122003697,,,110,001,2019_Sep_10_1309,MusicAffectPsychophysiology2019,3.0.5,None,
To what extent did the music make you feel ,GUILTY,30MonoWAV/30MonoS3.wav,1,1,3,11,,,,,0,0,0,10,0,1,1,5,,,,,,,,,2,2.9850107849997585,,,110,001,2019_Sep_10_1309,MusicAffectPsychophysiology2019,3.0.5,None,
To what extent did the music make you feel ,FRUSTRATED,30MonoWAV/30MonoS3.wav,1,1,3,11,,,,,0,0,0,10,0,2,2,3,,,,,,,,,2,4.106618569996499,,,110,001,2019_Sep_10_1309,MusicAffectPsychophysiology2019,3.0.5,None,
To what extent did the music make you feel ,EXCITED,30MonoWAV/30MonoS3.wav,1,1,3,11,,,,,0,0,0,10,0,3,3,7,,,,,,,,,1,1.0690672720011207,,,110,001,2019_Sep_10_1309,MusicAffectPsychophysiology2019,3.0.5,None,
To what extent did the music make you feel ,SCARED,30MonoWAV/30MonoS3.wav,1,1,3,11,,,,,0,0,0,10,0,4,4,11,,,,,,,,,2,1.9372388670017244,,,110,001,2019_Sep_10_1309,MusicAffectPsychophysiology2019,3.0.5,None,
To what extent did the music make you feel ,ALERT,30MonoWAV/30MonoS3.wav,1,1,3,11,,,,,0,0,0,10,0,5,5,8,,,,,,,,,2,5.068581762003305,,,110,001,2019_Sep_10_1309,MusicAffectPsychophysiology2019,3.0.5,None,
To what extent did the music make you feel ,HAPPY,30MonoWAV/30MonoS3.wav,1,1,3,11,,,,,0,0,0,10,0,6,6,6,,,,,,,,,1,1.5528140739988885,,,110,001,2019_Sep_10_1309,MusicAffectPsychophysiology2019,3.0.5,None,
To what extent did the music make you feel ,SAD,30MonoWAV/30MonoS3.wav,1,1,3,11,,,,,0,0,0,10,0,7,7,0,,,,,,,,,3,3.468864720998681,,,110,001,2019_Sep_10_1309,MusicAffectPsychophysiology2019,3.0.5,None,
To what extent did the music make you feel ,ASHAMED,30MonoWAV/30MonoS3.wav,1,1,3,11,,,,,0,0,0,10,0,8,8,4,,,,,,,,,1,2.8845484150006087,,,110,001,2019_Sep_10_1309,MusicAffectPsychophysiology2019,3.0.5,None,
To what extent did the music make you feel ,ANXIOUS ,30MonoWAV/30MonoS3.wav,1,1,3,11,,,,,0,0,0,10,0,9,9,1,,,,,,,,,2,1.3158524310056237,,,110,001,2019_Sep_10_1309,MusicAffectPsychophysiology2019,3.0.5,None,
To what extent did the music make you feel ,ANGRY,30MonoWAV/30MonoS3.wav,1,1,3,11,,,,,0,0,0,10,0,10,10,2,,,,,,,,,1,1.2185979909991147,,,110,001,2019_Sep_10_1309,MusicAffectPsychophysiology2019,3.0.5,None,
To what extent did the music make you feel ,TENDER,30MonoWAV/30MonoS3.wav,1,1,3,11,,,,,0,0,0,10,0,11,11,10,,,,,,,,,1,2.701037022001401,,,110,001,2019_Sep_10_1309,MusicAffectPsychophysiology2019,3.0.5,None,
,,30MonoWAV/30MonoS3.wav,1,1,3,11,,,,,0,0,0,10,,,,,,,,,,,,,,,,,110,001,2019_Sep_10_1309,MusicAffectPsychophysiology2019,3.0.5,None,
To what extent did the music make you feel ,EXCITED,30MonoWAV/30MonoH4.wav,2,2,1,8,,,,,0,1,1,7,0,0,0,7,,,4,4.635724722000305,3,9.685716334002791,3,2.635788315004902,4,2.1984846550039947,,,110,001,2019_Sep_10_1309,MusicAffectPsychophysiology2019,3.0.5,None,
To what extent did the music make you feel ,ASHAMED,30MonoWAV/30MonoH4.wav,2,2,1,8,,,,,0,1,1,7,0,1,1,4,,,,,,,,,1,1.086773721006466,,,110,001,2019_Sep_10_1309,MusicAffectPsychophysiology2019,3.0.5,None,
To what extent did the music make you feel ,SCARED,30MonoWAV/30MonoH4.wav,2,2,1,8,,,,,0,1,1,7,0,2,2,11,,,,,,,,,1,0.7864032399957068,,,110,001,2019_Sep_10_1309,MusicAffectPsychophysiology2019,3.0.5,None,
To what extent did the music make you feel ,FRUSTRATED,30MonoWAV/30MonoH4.wav,2,2,1,8,,,,,0,1,1,7,0,3,3,3,,,,,,,,,1,0.7808669000005466,,,110,001,2019_Sep_10_1309,MusicAffectPsychophysiology2019,3.0.5,None,
To what extent did the music make you feel ,HAPPY,30MonoWAV/30MonoH4.wav,2,2,1,8,,,,,0,1,1,7,0,4,4,6,,,,,,,,,3,3.752356682998652,,,110,001,2019_Sep_10_1309,MusicAffectPsychophysiology2019,3.0.5,None,
To what extent did the music make you feel ,ALERT,30MonoWAV/30MonoH4.wav,2,2,1,8,,,,,0,1,1,7,0,5,5,8,,,,,,,,,1,1.552636539003288,,,110,001,2019_Sep_10_1309,MusicAffectPsychophysiology2019,3.0.5,None,
To what extent did the music make you feel ,SAD,30MonoWAV/30MonoH4.wav,2,2,1,8,,,,,0,1,1,7,0,6,6,0,,,,,,,,,1,1.3031676550017437,,,110,001,2019_Sep_10_1309,MusicAffectPsychophysiology2019,3.0.5,None,
To what extent did the music make you feel ,TENDER,30MonoWAV/30MonoH4.wav,2,2,1,8,,,,,0,1,1,7,0,7,7,10,,,,,,,,,1,1.8513505599985365,,,110,001,2019_Sep_10_1309,MusicAffectPsychophysiology2019,3.0.5,None,
To what extent did the music make you feel ,ANXIOUS ,30MonoWAV/30MonoH4.wav,2,2,1,8,,,,,0,1,1,7,0,8,8,1,,,,,,,,,1,0.8860288390060305,,,110,001,2019_Sep_10_1309,MusicAffectPsychophysiology2019,3.0.5,None,
To what extent did the music make you feel ,ANGRY,30MonoWAV/30MonoH4.wav,2,2,1,8,,,,,0,1,1,7,0,9,9,2,,,,,,,,,1,0.6696444490007707,,,110,001,2019_Sep_10_1309,MusicAffectPsychophysiology2019,3.0.5,None,
To what extent did the music make you feel ,GUILTY,30MonoWAV/30MonoH4.wav,2,2,1,8,,,,,0,1,1,7,0,10,10,5,,,,,,,,,1,0.6514945769959013,,,110,001,2019_Sep_10_1309,MusicAffectPsychophysiology2019,3.0.5,None,
To what extent did the music make you feel ,ACTIVE,30MonoWAV/30MonoH4.wav,2,2,1,8,,,,,0,1,1,7,0,11,11,9,,,,,,,,,4,3.1526773759978823,,,110,001,2019_Sep_10_1309,MusicAffectPsychophysiology2019,3.0.5,None,
,,30MonoWAV/30MonoH4.wav,2,2,1,8,,,,,0,1,1,7,,,,,,,,,,,,,,,,,110,001,2019_Sep_10_1309,MusicAffectPsychophysiology2019,3.0.5,None,
To what extent did the music make you feel ,TENDER,30MonoWAV/30MonoT1.wav,2,1,4,13,,,,,0,2,2,12,0,0,0,10,,,1,4.835332901995571,2,7.569170458998997,3,4.919235022003704,4,2.956127945006301,,,110,001,2019_Sep_10_1309,MusicAffectPsychophysiology2019,3.0.5,None,
To what extent did the music make you feel ,GUILTY,30MonoWAV/30MonoT1.wav,2,1,4,13,,,,,0,2,2,12,0,1,1,5,,,,,,,,,1,1.3523809370017261,,,110,001,2019_Sep_10_1309,MusicAffectPsychophysiology2019,3.0.5,None,
To what extent did the music make you feel ,ANGRY,30MonoWAV/30MonoT1.wav,2,1,4,13,,,,,0,2,2,12,0,2,2,2,,,,,,,,,1,0.7191840480008977,,,110,001,2019_Sep_10_1309,MusicAffectPsychophysiology2019,3.0.5,None,
To what extent did the music make you feel ,ALERT,30MonoWAV/30MonoT1.wav,2,1,4,13,,,,,0,2,2,12,0,3,3,8,,,,,,,,,1,0.9028784890033421,,,110,001,2019_Sep_10_1309,MusicAffectPsychophysiology2019,3.0.5,None,
To what extent did the music make you feel ,ACTIVE,30MonoWAV/30MonoT1.wav,2,1,4,13,,,,,0,2,2,12,0,4,4,9,,,,,,,,,1,3.565909796001506,,,110,001,2019_Sep_10_1309,MusicAffectPsychophysiology2019,3.0.5,None,
To what extent did the music make you feel ,FRUSTRATED,30MonoWAV/30MonoT1.wav,2,1,4,13,,,,,0,2,2,12,0,5,5,3,,,,,,,,,1,3.2367192969977623,,,110,001,2019_Sep_10_1309,MusicAffectPsychophysiology2019,3.0.5,None,
To what extent did the music make you feel ,EXCITED,30MonoWAV/30MonoT1.wav,2,1,4,13,,,,,0,2,2,12,0,6,6,7,,,,,,,,,1,2.119743291004852,,,110,001,2019_Sep_10_1309,MusicAffectPsychophysiology2019,3.0.5,None,
To what extent did the music make you feel ,SAD,30MonoWAV/30MonoT1.wav,2,1,4,13,,,,,0,2,2,12,0,7,7,0,,,,,,,,,2,2.135902525995334,,,110,001,2019_Sep_10_1309,MusicAffectPsychophysiology2019,3.0.5,None,
To what extent did the music make you feel ,ANXIOUS ,30MonoWAV/30MonoT1.wav,2,1,4,13,,,,,0,2,2,12,0,8,8,1,,,,,,,,,1,1.5033573039982002,,,110,001,2019_Sep_10_1309,MusicAffectPsychophysiology2019,3.0.5,None,
To what extent did the music make you feel ,SCARED,30MonoWAV/30MonoT1.wav,2,1,4,13,,,,,0,2,2,12,0,9,9,11,,,,,,,,,1,0.9193866420027916,,,110,001,2019_Sep_10_1309,MusicAffectPsychophysiology2019,3.0.5,None,
To what extent did the music make you feel ,ASHAMED,30MonoWAV/30MonoT1.wav,2,1,4,13,,,,,0,2,2,12,0,10,10,4,,,,,,,,,1,0.9529133329997421,,,110,001,2019_Sep_10_1309,MusicAffectPsychophysiology2019,3.0.5,None,
To what extent did the music make you feel ,HAPPY,30MonoWAV/30MonoT1.wav,2,1,4,13,,,,,0,2,2,12,0,11,11,6,,,,,,,,,2,3.4511859910053317,,,110,001,2019_Sep_10_1309,MusicAffectPsychophysiology2019,3.0.5,None,
,,30MonoWAV/30MonoT1.wav,2,1,4,13,,,,,0,2,2,12,,,,,,,,,,,,,,,,,110,001,2019_Sep_10_1309,MusicAffectPsychophysiology2019,3.0.5,None,
To what extent did the music make you feel ,FRUSTRATED,30MonoWAV/30MonoT3.wav,2,1,4,15,,,,,0,3,3,14,0,0,0,3,,,2,3.602354048998677,3,2.569742154002597,3,6.852419529001054,1,2.353382249995775,,,110,001,2019_Sep_10_1309,MusicAffectPsychophysiology2019,3.0.5,None,
To what extent did the music make you feel ,ANGRY,30MonoWAV/30MonoT3.wav,2,1,4,15,,,,,0,3,3,14,0,1,1,2,,,,,,,,,1,0.6857250489993021,,,110,001,2019_Sep_10_1309,MusicAffectPsychophysiology2019,3.0.5,None,
To what extent did the music make you feel ,SAD,30MonoWAV/30MonoT3.wav,2,1,4,15,,,,,0,3,3,14,0,2,2,0,,,,,,,,,1,3.1350760999994236,,,110,001,2019_Sep_10_1309,MusicAffectPsychophysiology2019,3.0.5,None,
To what extent did the music make you feel ,ACTIVE,30MonoWAV/30MonoT3.wav,2,1,4,15,,,,,0,3,3,14,0,3,3,9,,,,,,,,,2,6.969365438002569,,,110,001,2019_Sep_10_1309,MusicAffectPsychophysiology2019,3.0.5,None,
To what extent did the music make you feel ,EXCITED,30MonoWAV/30MonoT3.wav,2,1,4,15,,,,,0,3,3,14,0,4,4,7,,,,,,,,,1,1.4523991070018383,,,110,001,2019_Sep_10_1309,MusicAffectPsychophysiology2019,3.0.5,None,
To what extent did the music make you feel ,TENDER,30MonoWAV/30MonoT3.wav,2,1,4,15,,,,,0,3,3,14,0,5,5,10,,,,,,,,,3,2.168682399998943,,,110,001,2019_Sep_10_1309,MusicAffectPsychophysiology2019,3.0.5,None,
To what extent did the music make you feel ,HAPPY,30MonoWAV/30MonoT3.wav,2,1,4,15,,,,,0,3,3,14,0,6,6,6,,,,,,,,,2,1.5017058219964383,,,110,001,2019_Sep_10_1309,MusicAffectPsychophysiology2019,3.0.5,None,
To what extent did the music make you feel ,ALERT,30MonoWAV/30MonoT3.wav,2,1,4,15,,,,,0,3,3,14,0,7,7,8,,,,,,,,,1,0.8023604059999343,,,110,001,2019_Sep_10_1309,MusicAffectPsychophysiology2019,3.0.5,None,
To what extent did the music make you feel ,SCARED,30MonoWAV/30MonoT3.wav,2,1,4,15,,,,,0,3,3,14,0,8,8,11,,,,,,,,,1,0.8349327809992246,,,110,001,2019_Sep_10_1309,MusicAffectPsychophysiology2019,3.0.5,None,
To what extent did the music make you feel ,ASHAMED,30MonoWAV/30MonoT3.wav,2,1,4,15,,,,,0,3,3,14,0,9,9,4,,,,,,,,,1,0.8363073220025399,,,110,001,2019_Sep_10_1309,MusicAffectPsychophysiology2019,3.0.5,None,
To what extent did the music make you feel ,ANXIOUS ,30MonoWAV/30MonoT3.wav,2,1,4,15,,,,,0,3,3,14,0,10,10,1,,,,,,,,,1,1.2863394119995064,,,110,001,2019_Sep_10_1309,MusicAffectPsychophysiology2019,3.0.5,None,
To what extent did the music make you feel ,GUILTY,30MonoWAV/30MonoT3.wav,2,1,4,15,,,,,0,3,3,14,0,11,11,5,,,,,,,,,1,3.035686117000296,,,110,001,2019_Sep_10_1309,MusicAffectPsychophysiology2019,3.0.5,None,
,,30MonoWAV/30MonoT3.wav,2,1,4,15,,,,,0,3,3,14,,,,,,,,,,,,,,,,,110,001,2019_Sep_10_1309,MusicAffectPsychophysiology2019,3.0.5,None,
To what extent did the music make you feel ,SCARED,30MonoWAV/30MonoH3.wav,2,2,1,7,,,,,0,4,4,6,0,0,0,11,,,5,3.653538191996631,4,4.41947492199688,3,3.0521396190015366,1,1.2233853120051208,,,110,001,2019_Sep_10_1309,MusicAffectPsychophysiology2019,3.0.5,None,
To what extent did the music make you feel ,ALERT,30MonoWAV/30MonoH3.wav,2,2,1,7,,,,,0,4,4,6,0,1,1,8,,,,,,,,,3,3.602510845004872,,,110,001,2019_Sep_10_1309,MusicAffectPsychophysiology2019,3.0.5,None,
To what extent did the music make you feel ,SAD,30MonoWAV/30MonoH3.wav,2,2,1,7,,,,,0,4,4,6,0,2,2,0,,,,,,,,,1,0.7332081159984227,,,110,001,2019_Sep_10_1309,MusicAffectPsychophysiology2019,3.0.5,None,
To what extent did the music make you feel ,GUILTY,30MonoWAV/30MonoH3.wav,2,2,1,7,,,,,0,4,4,6,0,3,3,5,,,,,,,,,1,1.186177100003988,,,110,001,2019_Sep_10_1309,MusicAffectPsychophysiology2019,3.0.5,None,
To what extent did the music make you feel ,EXCITED,30MonoWAV/30MonoH3.wav,2,2,1,7,,,,,0,4,4,6,0,4,4,7,,,,,,,,,4,5.486679872999957,,,110,001,2019_Sep_10_1309,MusicAffectPsychophysiology2019,3.0.5,None,
To what extent did the music make you feel ,ANGRY,30MonoWAV/30MonoH3.wav,2,2,1,7,,,,,0,4,4,6,0,5,5,2,,,,,,,,,1,0.9191359920005198,,,110,001,2019_Sep_10_1309,MusicAffectPsychophysiology2019,3.0.5,None,
To what extent did the music make you feel ,ANXIOUS ,30MonoWAV/30MonoH3.wav,2,2,1,7,,,,,0,4,4,6,0,6,6,1,,,,,,,,,1,0.7366344670008402,,,110,001,2019_Sep_10_1309,MusicAffectPsychophysiology2019,3.0.5,None,
To what extent did the music make you feel ,TENDER,30MonoWAV/30MonoH3.wav,2,2,1,7,,,,,0,4,4,6,0,7,7,10,,,,,,,,,1,1.552801145997364,,,110,001,2019_Sep_10_1309,MusicAffectPsychophysiology2019,3.0.5,None,
To what extent did the music make you feel ,ASHAMED,30MonoWAV/30MonoH3.wav,2,2,1,7,,,,,0,4,4,6,0,8,8,4,,,,,,,,,1,0.6868715039963718,,,110,001,2019_Sep_10_1309,MusicAffectPsychophysiology2019,3.0.5,None,
To what extent did the music make you feel ,HAPPY,30MonoWAV/30MonoH3.wav,2,2,1,7,,,,,0,4,4,6,0,9,9,6,,,,,,,,,3,1.6857255880022421,,,110,001,2019_Sep_10_1309,MusicAffectPsychophysiology2019,3.0.5,None,
To what extent did the music make you feel ,FRUSTRATED,30MonoWAV/30MonoH3.wav,2,2,1,7,,,,,0,4,4,6,0,10,10,3,,,,,,,,,1,2.535082820999378,,,110,001,2019_Sep_10_1309,MusicAffectPsychophysiology2019,3.0.5,None,
To what extent did the music make you feel ,ACTIVE,30MonoWAV/30MonoH3.wav,2,2,1,7,,,,,0,4,4,6,0,11,11,9,,,,,,,,,5,4.35275858300156,,,110,001,2019_Sep_10_1309,MusicAffectPsychophysiology2019,3.0.5,None,
,,30MonoWAV/30MonoH3.wav,2,2,1,7,,,,,0,4,4,6,,,,,,,,,,,,,,,,,110,001,2019_Sep_10_1309,MusicAffectPsychophysiology2019,3.0.5,None,
To what extent did the music make you feel ,ASHAMED,30MonoWAV/30MonoH1.wav,2,2,1,5,,,,,0,5,5,4,0,0,0,4,,,3,8.337258232997556,4,2.069532066998363,2,3.186167905005277,1,0.7640565159963444,,,110,001,2019_Sep_10_1309,MusicAffectPsychophysiology2019,3.0.5,None,
To what extent did the music make you feel ,EXCITED,30MonoWAV/30MonoH1.wav,2,2,1,5,,,,,0,5,5,4,0,1,1,7,,,,,,,,,4,4.169218497001566,,,110,001,2019_Sep_10_1309,MusicAffectPsychophysiology2019,3.0.5,None,
To what extent did the music make you feel ,ACTIVE,30MonoWAV/30MonoH1.wav,2,2,1,5,,,,,0,5,5,4,0,2,2,9,,,,,,,,,4,2.901875323994318,,,110,001,2019_Sep_10_1309,MusicAffectPsychophysiology2019,3.0.5,None,
To what extent did the music make you feel ,HAPPY,30MonoWAV/30MonoH1.wav,2,2,1,5,,,,,0,5,5,4,0,3,3,6,,,,,,,,,2,6.752292526005476,,,110,001,2019_Sep_10_1309,MusicAffectPsychophysiology2019,3.0.5,None,
To what extent did the music make you feel ,ANGRY,30MonoWAV/30MonoH1.wav,2,2,1,5,,,,,0,5,5,4,0,4,4,2,,,,,,,,,1,1.2017552410034114,,,110,001,2019_Sep_10_1309,MusicAffectPsychophysiology2019,3.0.5,None,
To what extent did the music make you feel ,SCARED,30MonoWAV/30MonoH1.wav,2,2,1,5,,,,,0,5,5,4,0,5,5,11,,,,,,,,,1,0.8198997770014103,,,110,001,2019_Sep_10_1309,MusicAffectPsychophysiology2019,3.0.5,None,
To what extent did the music make you feel ,ALERT,30MonoWAV/30MonoH1.wav,2,2,1,5,,,,,0,5,5,4,0,6,6,8,,,,,,,,,2,1.9527387699999963,,,110,001,2019_Sep_10_1309,MusicAffectPsychophysiology2019,3.0.5,None,
To what extent did the music make you feel ,TENDER,30MonoWAV/30MonoH1.wav,2,2,1,5,,,,,0,5,5,4,0,7,7,10,,,,,,,,,1,2.066012816998409,,,110,001,2019_Sep_10_1309,MusicAffectPsychophysiology2019,3.0.5,None,
To what extent did the music make you feel ,FRUSTRATED,30MonoWAV/30MonoH1.wav,2,2,1,5,,,,,0,5,5,4,0,8,8,3,,,,,,,,,1,1.1187739070010139,,,110,001,2019_Sep_10_1309,MusicAffectPsychophysiology2019,3.0.5,None,
To what extent did the music make you feel ,SAD,30MonoWAV/30MonoH1.wav,2,2,1,5,,,,,0,5,5,4,0,9,9,0,,,,,,,,,1,1.1690141219951329,,,110,001,2019_Sep_10_1309,MusicAffectPsychophysiology2019,3.0.5,None,
To what extent did the music make you feel ,ANXIOUS ,30MonoWAV/30MonoH1.wav,2,2,1,5,,,,,0,5,5,4,0,10,10,1,,,,,,,,,1,1.1353108969997265,,,110,001,2019_Sep_10_1309,MusicAffectPsychophysiology2019,3.0.5,None,
To what extent did the music make you feel ,GUILTY,30MonoWAV/30MonoH1.wav,2,2,1,5,,,,,0,5,5,4,0,11,11,5,,,,,,,,,1,1.0522183930006577,,,110,001,2019_Sep_10_1309,MusicAffectPsychophysiology2019,3.0.5,None,
,,30MonoWAV/30MonoH1.wav,2,2,1,5,,,,,0,5,5,4,,,,,,,,,,,,,,,,,110,001,2019_Sep_10_1309,MusicAffectPsychophysiology2019,3.0.5,None,
To what extent did the music make you feel ,SAD,30MonoWAV/30MonoS1.wav,1,1,3,9,,,,,0,6,6,8,0,0,0,0,,,2,5.5345499999966705,1,5.968741910000972,2,4.067362229994615,2,5.634357899005408,,,110,001,2019_Sep_10_1309,MusicAffectPsychophysiology2019,3.0.5,None,
To what extent did the music make you feel ,ACTIVE,30MonoWAV/30MonoS1.wav,1,1,3,9,,,,,0,6,6,8,0,1,1,9,,,,,,,,,1,1.9704525609995471,,,110,001,2019_Sep_10_1309,MusicAffectPsychophysiology2019,3.0.5,None,
To what extent did the music make you feel ,FRUSTRATED,30MonoWAV/30MonoS1.wav,1,1,3,9,,,,,0,6,6,8,0,2,2,3,,,,,,,,,2,3.3870709349939716,,,110,001,2019_Sep_10_1309,MusicAffectPsychophysiology2019,3.0.5,None,
To what extent did the music make you feel ,GUILTY,30MonoWAV/30MonoS1.wav,1,1,3,9,,,,,0,6,6,8,0,3,3,5,,,,,,,,,1,2.403165101997729,,,110,001,2019_Sep_10_1309,MusicAffectPsychophysiology2019,3.0.5,None,
To what extent did the music make you feel ,ANXIOUS ,30MonoWAV/30MonoS1.wav,1,1,3,9,,,,,0,6,6,8,0,4,4,1,,,,,,,,,2,4.685597196999879,,,110,001,2019_Sep_10_1309,MusicAffectPsychophysiology2019,3.0.5,None,
To what extent did the music make you feel ,TENDER,30MonoWAV/30MonoS1.wav,1,1,3,9,,,,,0,6,6,8,0,5,5,10,,,,,,,,,2,1.5858434050023789,,,110,001,2019_Sep_10_1309,MusicAffectPsychophysiology2019,3.0.5,None,
To what extent did the music make you feel ,ASHAMED,30MonoWAV/30MonoS1.wav,1,1,3,9,,,,,0,6,6,8,0,6,6,4,,,,,,,,,1,2.1695422459961264,,,110,001,2019_Sep_10_1309,MusicAffectPsychophysiology2019,3.0.5,None,
To what extent did the music make you feel ,SCARED,30MonoWAV/30MonoS1.wav,1,1,3,9,,,,,0,6,6,8,0,7,7,11,,,,,,,,,2,3.1523492239939515,,,110,001,2019_Sep_10_1309,MusicAffectPsychophysiology2019,3.0.5,None,
To what extent did the music make you feel ,ALERT,30MonoWAV/30MonoS1.wav,1,1,3,9,,,,,0,6,6,8,0,8,8,8,,,,,,,,,2,3.1175160780039732,,,110,001,2019_Sep_10_1309,MusicAffectPsychophysiology2019,3.0.5,None,
To what extent did the music make you feel ,ANGRY,30MonoWAV/30MonoS1.wav,1,1,3,9,,,,,0,6,6,8,0,9,9,2,,,,,,,,,1,1.2000928230045247,,,110,001,2019_Sep_10_1309,MusicAffectPsychophysiology2019,3.0.5,None,
To what extent did the music make you feel ,HAPPY,30MonoWAV/30MonoS1.wav,1,1,3,9,,,,,0,6,6,8,0,10,10,6,,,,,,,,,1,1.9014413979966776,,,110,001,2019_Sep_10_1309,MusicAffectPsychophysiology2019,3.0.5,None,
To what extent did the music make you feel ,EXCITED,30MonoWAV/30MonoS1.wav,1,1,3,9,,,,,0,6,6,8,0,11,11,7,,,,,,,,,1,0.8345893849982531,,,110,001,2019_Sep_10_1309,MusicAffectPsychophysiology2019,3.0.5,None,
,,30MonoWAV/30MonoS1.wav,1,1,3,9,,,,,0,6,6,8,,,,,,,,,,,,,,,,,110,001,2019_Sep_10_1309,MusicAffectPsychophysiology2019,3.0.5,None,
To what extent did the music make you feel ,SCARED,30MonoWAV/30MonoF4.wav,1,2,2,4,,,,,0,7,7,3,0,0,0,11,,,5,4.95213237900316,2,4.185220202998607,2,3.652363109998987,4,6.495718220001436,,,110,001,2019_Sep_10_1309,MusicAffectPsychophysiology2019,3.0.5,None,
To what extent did the music make you feel ,HAPPY,30MonoWAV/30MonoF4.wav,1,2,2,4,,,,,0,7,7,3,0,1,1,6,,,,,,,,,2,5.4358979539974825,,,110,001,2019_Sep_10_1309,MusicAffectPsychophysiology2019,3.0.5,None,
To what extent did the music make you feel ,ANGRY,30MonoWAV/30MonoF4.wav,1,2,2,4,,,,,0,7,7,3,0,2,2,2,,,,,,,,,1,1.18604817600135,,,110,001,2019_Sep_10_1309,MusicAffectPsychophysiology2019,3.0.5,None,
To what extent did the music make you feel ,ANXIOUS ,30MonoWAV/30MonoF4.wav,1,2,2,4,,,,,0,7,7,3,0,3,3,1,,,,,,,,,2,1.8030540809995728,,,110,001,2019_Sep_10_1309,MusicAffectPsychophysiology2019,3.0.5,None,
To what extent did the music make you feel ,SAD,30MonoWAV/30MonoF4.wav,1,2,2,4,,,,,0,7,7,3,0,4,4,0,,,,,,,,,1,1.8354221170011442,,,110,001,2019_Sep_10_1309,MusicAffectPsychophysiology2019,3.0.5,None,
To what extent did the music make you feel ,TENDER,30MonoWAV/30MonoF4.wav,1,2,2,4,,,,,0,7,7,3,0,5,5,10,,,,,,,,,1,1.3861499839986209,,,110,001,2019_Sep_10_1309,MusicAffectPsychophysiology2019,3.0.5,None,
To what extent did the music make you feel ,ACTIVE,30MonoWAV/30MonoF4.wav,1,2,2,4,,,,,0,7,7,3,0,6,6,9,,,,,,,,,5,2.1668286450003507,,,110,001,2019_Sep_10_1309,MusicAffectPsychophysiology2019,3.0.5,None,
To what extent did the music make you feel ,ALERT,30MonoWAV/30MonoF4.wav,1,2,2,4,,,,,0,7,7,3,0,7,7,8,,,,,,,,,5,1.4525903260000632,,,110,001,2019_Sep_10_1309,MusicAffectPsychophysiology2019,3.0.5,None,
To what extent did the music make you feel ,ASHAMED,30MonoWAV/30MonoF4.wav,1,2,2,4,,,,,0,7,7,3,0,8,8,4,,,,,,,,,1,1.1032602560007945,,,110,001,2019_Sep_10_1309,MusicAffectPsychophysiology2019,3.0.5,None,
To what extent did the music make you feel ,FRUSTRATED,30MonoWAV/30MonoF4.wav,1,2,2,4,,,,,0,7,7,3,0,9,9,3,,,,,,,,,1,1.7930046210021828,,,110,001,2019_Sep_10_1309,MusicAffectPsychophysiology2019,3.0.5,None,
To what extent did the music make you feel ,GUILTY,30MonoWAV/30MonoF4.wav,1,2,2,4,,,,,0,7,7,3,0,10,10,5,,,,,,,,,1,0.9030463910021354,,,110,001,2019_Sep_10_1309,MusicAffectPsychophysiology2019,3.0.5,None,
To what extent did the music make you feel ,EXCITED,30MonoWAV/30MonoF4.wav,1,2,2,4,,,,,0,7,7,3,0,11,11,7,,,,,,,,,5,1.685964830001467,,,110,001,2019_Sep_10_1309,MusicAffectPsychophysiology2019,3.0.5,None,
,,30MonoWAV/30MonoF4.wav,1,2,2,4,,,,,0,7,7,3,,,,,,,,,,,,,,,,,110,001,2019_Sep_10_1309,MusicAffectPsychophysiology2019,3.0.5,None,
To what extent did the music make you feel ,ANXIOUS ,30MonoWAV/30MonoT4.wav,2,1,4,16,,,,,0,8,8,15,0,0,0,1,,,2,5.285405369002547,2,4.251470395000069,2,2.2871821860026103,1,2.1849453000031644,,,110,001,2019_Sep_10_1309,MusicAffectPsychophysiology2019,3.0.5,None,
To what extent did the music make you feel ,ASHAMED,30MonoWAV/30MonoT4.wav,2,1,4,16,,,,,0,8,8,15,0,1,1,4,,,,,,,,,1,0.6872454999975162,,,110,001,2019_Sep_10_1309,MusicAffectPsychophysiology2019,3.0.5,None,
To what extent did the music make you feel ,ALERT,30MonoWAV/30MonoT4.wav,2,1,4,16,,,,,0,8,8,15,0,2,2,8,,,,,,,,,1,1.336152088995732,,,110,001,2019_Sep_10_1309,MusicAffectPsychophysiology2019,3.0.5,None,
To what extent did the music make you feel ,SCARED,30MonoWAV/30MonoT4.wav,2,1,4,16,,,,,0,8,8,15,0,3,3,11,,,,,,,,,1,1.051837983999576,,,110,001,2019_Sep_10_1309,MusicAffectPsychophysiology2019,3.0.5,None,
To what extent did the music make you feel ,EXCITED,30MonoWAV/30MonoT4.wav,2,1,4,16,,,,,0,8,8,15,0,4,4,7,,,,,,,,,1,2.0989250200000242,,,110,001,2019_Sep_10_1309,MusicAffectPsychophysiology2019,3.0.5,None,
To what extent did the music make you feel ,FRUSTRATED,30MonoWAV/30MonoT4.wav,2,1,4,16,,,,,0,8,8,15,0,5,5,3,,,,,,,,,1,1.6861760149986367,,,110,001,2019_Sep_10_1309,MusicAffectPsychophysiology2019,3.0.5,None,
To what extent did the music make you feel ,ANGRY,30MonoWAV/30MonoT4.wav,2,1,4,16,,,,,0,8,8,15,0,6,6,2,,,,,,,,,1,1.5354589039998245,,,110,001,2019_Sep_10_1309,MusicAffectPsychophysiology2019,3.0.5,None,
To what extent did the music make you feel ,GUILTY,30MonoWAV/30MonoT4.wav,2,1,4,16,,,,,0,8,8,15,0,7,7,5,,,,,,,,,1,0.8520496810015175,,,110,001,2019_Sep_10_1309,MusicAffectPsychophysiology2019,3.0.5,None,
To what extent did the music make you feel ,ACTIVE,30MonoWAV/30MonoT4.wav,2,1,4,16,,,,,0,8,8,15,0,8,8,9,,,,,,,,,1,1.55172608900466,,,110,001,2019_Sep_10_1309,MusicAffectPsychophysiology2019,3.0.5,None,
To what extent did the music make you feel ,SAD,30MonoWAV/30MonoT4.wav,2,1,4,16,,,,,0,8,8,15,0,9,9,0,,,,,,,,,1,1.1178727279984741,,,110,001,2019_Sep_10_1309,MusicAffectPsychophysiology2019,3.0.5,None,
To what extent did the music make you feel ,TENDER,30MonoWAV/30MonoT4.wav,2,1,4,16,,,,,0,8,8,15,0,10,10,10,,,,,,,,,2,1.2003362539981026,,,110,001,2019_Sep_10_1309,MusicAffectPsychophysiology2019,3.0.5,None,
To what extent did the music make you feel ,HAPPY,30MonoWAV/30MonoT4.wav,2,1,4,16,,,,,0,8,8,15,0,11,11,6,,,,,,,,,1,1.1691405989986379,,,110,001,2019_Sep_10_1309,MusicAffectPsychophysiology2019,3.0.5,None,
,,30MonoWAV/30MonoT4.wav,2,1,4,16,,,,,0,8,8,15,,,,,,,,,,,,,,,,,110,001,2019_Sep_10_1309,MusicAffectPsychophysiology2019,3.0.5,None,
To what extent did the music make you feel ,ANGRY,30MonoWAV/30MonoF2.wav,1,2,2,2,,,,,0,9,9,1,0,0,0,2,,,4,6.185509260998515,1,5.136007781002263,2,2.4528041770026903,1,1.396800764996442,,,110,001,2019_Sep_10_1309,MusicAffectPsychophysiology2019,3.0.5,None,
To what extent did the music make you feel ,SAD,30MonoWAV/30MonoF2.wav,1,2,2,2,,,,,0,9,9,1,0,1,1,0,,,,,,,,,1,0.9527540580020286,,,110,001,2019_Sep_10_1309,MusicAffectPsychophysiology2019,3.0.5,None,
To what extent did the music make you feel ,ANXIOUS ,30MonoWAV/30MonoF2.wav,1,2,2,2,,,,,0,9,9,1,0,2,2,1,,,,,,,,,2,1.669940049003344,,,110,001,2019_Sep_10_1309,MusicAffectPsychophysiology2019,3.0.5,None,
To what extent did the music make you feel ,GUILTY,30MonoWAV/30MonoF2.wav,1,2,2,2,,,,,0,9,9,1,0,3,3,5,,,,,,,,,1,1.0689612569985911,,,110,001,2019_Sep_10_1309,MusicAffectPsychophysiology2019,3.0.5,None,
To what extent did the music make you feel ,SCARED,30MonoWAV/30MonoF2.wav,1,2,2,2,,,,,0,9,9,1,0,4,4,11,,,,,,,,,5,3.6192915630017524,,,110,001,2019_Sep_10_1309,MusicAffectPsychophysiology2019,3.0.5,None,
To what extent did the music make you feel ,HAPPY,30MonoWAV/30MonoF2.wav,1,2,2,2,,,,,0,9,9,1,0,5,5,6,,,,,,,,,1,1.8363692260027165,,,110,001,2019_Sep_10_1309,MusicAffectPsychophysiology2019,3.0.5,None,
To what extent did the music make you feel ,TENDER,30MonoWAV/30MonoF2.wav,1,2,2,2,,,,,0,9,9,1,0,6,6,10,,,,,,,,,1,1.6377551230034442,,,110,001,2019_Sep_10_1309,MusicAffectPsychophysiology2019,3.0.5,None,
To what extent did the music make you feel ,EXCITED,30MonoWAV/30MonoF2.wav,1,2,2,2,,,,,0,9,9,1,0,7,7,7,,,,,,,,,4,2.7527519290015334,,,110,001,2019_Sep_10_1309,MusicAffectPsychophysiology2019,3.0.5,None,
To what extent did the music make you feel ,ALERT,30MonoWAV/30MonoF2.wav,1,2,2,2,,,,,0,9,9,1,0,8,8,8,,,,,,,,,5,2.8850861489991075,,,110,001,2019_Sep_10_1309,MusicAffectPsychophysiology2019,3.0.5,None,
To what extent did the music make you feel ,ASHAMED,30MonoWAV/30MonoF2.wav,1,2,2,2,,,,,0,9,9,1,0,9,9,4,,,,,,,,,1,1.0022919300026842,,,110,001,2019_Sep_10_1309,MusicAffectPsychophysiology2019,3.0.5,None,
To what extent did the music make you feel ,ACTIVE,30MonoWAV/30MonoF2.wav,1,2,2,2,,,,,0,9,9,1,0,10,10,9,,,,,,,,,5,1.902575224004977,,,110,001,2019_Sep_10_1309,MusicAffectPsychophysiology2019,3.0.5,None,
To what extent did the music make you feel ,FRUSTRATED,30MonoWAV/30MonoF2.wav,1,2,2,2,,,,,0,9,9,1,0,11,11,3,,,,,,,,,1,1.2779861019953387,,,110,001,2019_Sep_10_1309,MusicAffectPsychophysiology2019,3.0.5,None,
,,30MonoWAV/30MonoF2.wav,1,2,2,2,,,,,0,9,9,1,,,,,,,,,,,,,,,,,110,001,2019_Sep_10_1309,MusicAffectPsychophysiology2019,3.0.5,None,
To what extent did the music make you feel ,ANXIOUS ,30MonoWAV/30MonoT2.wav,2,1,4,14,,,,,0,10,10,13,0,0,0,1,,,2,5.618806336999114,1,4.168781652995676,2,2.850342924997676,2,6.32012213300186,,,110,001,2019_Sep_10_1309,MusicAffectPsychophysiology2019,3.0.5,None,
To what extent did the music make you feel ,ASHAMED,30MonoWAV/30MonoT2.wav,2,1,4,14,,,,,0,10,10,13,0,1,1,4,,,,,,,,,1,2.118992083000194,,,110,001,2019_Sep_10_1309,MusicAffectPsychophysiology2019,3.0.5,None,
To what extent did the music make you feel ,GUILTY,30MonoWAV/30MonoT2.wav,2,1,4,14,,,,,0,10,10,13,0,2,2,5,,,,,,,,,1,0.8359352089973981,,,110,001,2019_Sep_10_1309,MusicAffectPsychophysiology2019,3.0.5,None,
To what extent did the music make you feel ,FRUSTRATED,30MonoWAV/30MonoT2.wav,2,1,4,14,,,,,0,10,10,13,0,3,3,3,,,,,,,,,2,3.5696073610015446,,,110,001,2019_Sep_10_1309,MusicAffectPsychophysiology2019,3.0.5,None,
To what extent did the music make you feel ,SAD,30MonoWAV/30MonoT2.wav,2,1,4,14,,,,,0,10,10,13,0,4,4,0,,,,,,,,,3,1.8030138820031425,,,110,001,2019_Sep_10_1309,MusicAffectPsychophysiology2019,3.0.5,None,
To what extent did the music make you feel ,ANGRY,30MonoWAV/30MonoT2.wav,2,1,4,14,,,,,0,10,10,13,0,5,5,2,,,,,,,,,1,1.7856912269999157,,,110,001,2019_Sep_10_1309,MusicAffectPsychophysiology2019,3.0.5,None,
To what extent did the music make you feel ,ACTIVE,30MonoWAV/30MonoT2.wav,2,1,4,14,,,,,0,10,10,13,0,6,6,9,,,,,,,,,2,4.1525777249989915,,,110,001,2019_Sep_10_1309,MusicAffectPsychophysiology2019,3.0.5,None,
To what extent did the music make you feel ,SCARED,30MonoWAV/30MonoT2.wav,2,1,4,14,,,,,0,10,10,13,0,7,7,11,,,,,,,,,1,1.6019481199982692,,,110,001,2019_Sep_10_1309,MusicAffectPsychophysiology2019,3.0.5,None,
To what extent did the music make you feel ,ALERT,30MonoWAV/30MonoT2.wav,2,1,4,14,,,,,0,10,10,13,0,8,8,8,,,,,,,,,1,1.7005665820033755,,,110,001,2019_Sep_10_1309,MusicAffectPsychophysiology2019,3.0.5,None,
To what extent did the music make you feel ,HAPPY,30MonoWAV/30MonoT2.wav,2,1,4,14,,,,,0,10,10,13,0,9,9,6,,,,,,,,,1,1.5519660639984068,,,110,001,2019_Sep_10_1309,MusicAffectPsychophysiology2019,3.0.5,None,
To what extent did the music make you feel ,EXCITED,30MonoWAV/30MonoT2.wav,2,1,4,14,,,,,0,10,10,13,0,10,10,7,,,,,,,,,1,2.2187286210028105,,,110,001,2019_Sep_10_1309,MusicAffectPsychophysiology2019,3.0.5,None,
To what extent did the music make you feel ,TENDER,30MonoWAV/30MonoT2.wav,2,1,4,14,,,,,0,10,10,13,0,11,11,10,,,,,,,,,2,6.385266141995089,,,110,001,2019_Sep_10_1309,MusicAffectPsychophysiology2019,3.0.5,None,
,,30MonoWAV/30MonoT2.wav,2,1,4,14,,,,,0,10,10,13,,,,,,,,,,,,,,,,,110,001,2019_Sep_10_1309,MusicAffectPsychophysiology2019,3.0.5,None,
To what extent did the music make you feel ,ASHAMED,30MonoWAV/30MonoF3.wav,1,2,2,3,,,,,0,11,11,2,0,0,0,4,,,4,9.10201680099999,1,6.335316801996669,1,3.2184955769989756,1,1.5940984950066195,,,110,001,2019_Sep_10_1309,MusicAffectPsychophysiology2019,3.0.5,None,
To what extent did the music make you feel ,SAD,30MonoWAV/30MonoF3.wav,1,2,2,3,,,,,0,11,11,2,0,1,1,0,,,,,,,,,1,2.268478056997992,,,110,001,2019_Sep_10_1309,MusicAffectPsychophysiology2019,3.0.5,None,
To what extent did the music make you feel ,HAPPY,30MonoWAV/30MonoF3.wav,1,2,2,3,,,,,0,11,11,2,0,2,2,6,,,,,,,,,1,1.5035218539997004,,,110,001,2019_Sep_10_1309,MusicAffectPsychophysiology2019,3.0.5,None,
To what extent did the music make you feel ,ANXIOUS ,30MonoWAV/30MonoF3.wav,1,2,2,3,,,,,0,11,11,2,0,3,3,1,,,,,,,,,3,3.7677869580002152,,,110,001,2019_Sep_10_1309,MusicAffectPsychophysiology2019,3.0.5,None,
To what extent did the music make you feel ,TENDER,30MonoWAV/30MonoF3.wav,1,2,2,3,,,,,0,11,11,2,0,4,4,10,,,,,,,,,1,1.336782120000862,,,110,001,2019_Sep_10_1309,MusicAffectPsychophysiology2019,3.0.5,None,
To what extent did the music make you feel ,ACTIVE,30MonoWAV/30MonoF3.wav,1,2,2,3,,,,,0,11,11,2,0,5,5,9,,,,,,,,,4,2.9339431560001685,,,110,001,2019_Sep_10_1309,MusicAffectPsychophysiology2019,3.0.5,None,
To what extent did the music make you feel ,EXCITED,30MonoWAV/30MonoF3.wav,1,2,2,3,,,,,0,11,11,2,0,6,6,7,,,,,,,,,3,2.5200064970049425,,,110,001,2019_Sep_10_1309,MusicAffectPsychophysiology2019,3.0.5,None,
To what extent did the music make you feel ,FRUSTRATED,30MonoWAV/30MonoF3.wav,1,2,2,3,,,,,0,11,11,2,0,7,7,3,,,,,,,,,1,1.1927558110037353,,,110,001,2019_Sep_10_1309,MusicAffectPsychophysiology2019,3.0.5,None,
To what extent did the music make you feel ,ANGRY,30MonoWAV/30MonoF3.wav,1,2,2,3,,,,,0,11,11,2,0,8,8,2,,,,,,,,,1,0.9681497040000977,,,110,001,2019_Sep_10_1309,MusicAffectPsychophysiology2019,3.0.5,None,
To what extent did the music make you feel ,SCARED,30MonoWAV/30MonoF3.wav,1,2,2,3,,,,,0,11,11,2,0,9,9,11,,,,,,,,,3,2.4535170660019503,,,110,001,2019_Sep_10_1309,MusicAffectPsychophysiology2019,3.0.5,None,
To what extent did the music make you feel ,GUILTY,30MonoWAV/30MonoF3.wav,1,2,2,3,,,,,0,11,11,2,0,10,10,5,,,,,,,,,1,0.8413886950002052,,,110,001,2019_Sep_10_1309,MusicAffectPsychophysiology2019,3.0.5,None,
To what extent did the music make you feel ,ALERT,30MonoWAV/30MonoF3.wav,1,2,2,3,,,,,0,11,11,2,0,11,11,8,,,,,,,,,5,2.2164732980018016,,,110,001,2019_Sep_10_1309,MusicAffectPsychophysiology2019,3.0.5,None,
,,30MonoWAV/30MonoF3.wav,1,2,2,3,,,,,0,11,11,2,,,,,,,,,,,,,,,,,110,001,2019_Sep_10_1309,MusicAffectPsychophysiology2019,3.0.5,None,
To what extent did the music make you feel ,ACTIVE,30MonoWAV/30MonoS2.wav,1,1,3,10,,,,,0,12,12,9,0,0,0,9,,,1,7.319011447994853,1,1.537789490997966,2,7.234856426999613,1,2.4017892659976496,,,110,001,2019_Sep_10_1309,MusicAffectPsychophysiology2019,3.0.5,None,
To what extent did the music make you feel ,ALERT,30MonoWAV/30MonoS2.wav,1,1,3,10,,,,,0,12,12,9,0,1,1,8,,,,,,,,,1,1.2688284500036389,,,110,001,2019_Sep_10_1309,MusicAffectPsychophysiology2019,3.0.5,None,
To what extent did the music make you feel ,ASHAMED,30MonoWAV/30MonoS2.wav,1,1,3,10,,,,,0,12,12,9,0,2,2,4,,,,,,,,,1,3.5164111179983593,,,110,001,2019_Sep_10_1309,MusicAffectPsychophysiology2019,3.0.5,None,
To what extent did the music make you feel ,TENDER,30MonoWAV/30MonoS2.wav,1,1,3,10,,,,,0,12,12,9,0,3,3,10,,,,,,,,,4,2.1682860579967382,,,110,001,2019_Sep_10_1309,MusicAffectPsychophysiology2019,3.0.5,None,
To what extent did the music make you feel ,ANXIOUS ,30MonoWAV/30MonoS2.wav,1,1,3,10,,,,,0,12,12,9,0,4,4,1,,,,,,,,,1,3.8191127499958384,,,110,001,2019_Sep_10_1309,MusicAffectPsychophysiology2019,3.0.5,None,
To what extent did the music make you feel ,SCARED,30MonoWAV/30MonoS2.wav,1,1,3,10,,,,,0,12,12,9,0,5,5,11,,,,,,,,,1,1.2858208359975833,,,110,001,2019_Sep_10_1309,MusicAffectPsychophysiology2019,3.0.5,None,
To what extent did the music make you feel ,SAD,30MonoWAV/30MonoS2.wav,1,1,3,10,,,,,0,12,12,9,0,6,6,0,,,,,,,,,4,4.568758381996304,,,110,001,2019_Sep_10_1309,MusicAffectPsychophysiology2019,3.0.5,None,
To what extent did the music make you feel ,HAPPY,30MonoWAV/30MonoS2.wav,1,1,3,10,,,,,0,12,12,9,0,7,7,6,,,,,,,,,1,1.6170247650006786,,,110,001,2019_Sep_10_1309,MusicAffectPsychophysiology2019,3.0.5,None,
To what extent did the music make you feel ,ANGRY,30MonoWAV/30MonoS2.wav,1,1,3,10,,,,,0,12,12,9,0,8,8,2,,,,,,,,,1,3.1188101849984378,,,110,001,2019_Sep_10_1309,MusicAffectPsychophysiology2019,3.0.5,None,
To what extent did the music make you feel ,FRUSTRATED,30MonoWAV/30MonoS2.wav,1,1,3,10,,,,,0,12,12,9,0,9,9,3,,,,,,,,,1,1.169735171002685,,,110,001,2019_Sep_10_1309,MusicAffectPsychophysiology2019,3.0.5,None,
To what extent did the music make you feel ,GUILTY,30MonoWAV/30MonoS2.wav,1,1,3,10,,,,,0,12,12,9,0,10,10,5,,,,,,,,,1,0.9513238180006738,,,110,001,2019_Sep_10_1309,MusicAffectPsychophysiology2019,3.0.5,None,
To what extent did the music make you feel ,EXCITED,30MonoWAV/30MonoS2.wav,1,1,3,10,,,,,0,12,12,9,0,11,11,7,,,,,,,,,1,0.9692378170002485,,,110,001,2019_Sep_10_1309,MusicAffectPsychophysiology2019,3.0.5,None,
,,30MonoWAV/30MonoS2.wav,1,1,3,10,,,,,0,12,12,9,,,,,,,,,,,,,,,,,110,001,2019_Sep_10_1309,MusicAffectPsychophysiology2019,3.0.5,None,
To what extent did the music make you feel ,SCARED,30MonoWAV/30MonoH2.wav,2,2,1,6,,,,,0,13,13,5,0,0,0,11,,,5,3.3693243079978856,5,3.517747876001522,3,4.41914886199811,1,2.29248860199732,,,110,001,2019_Sep_10_1309,MusicAffectPsychophysiology2019,3.0.5,None,
To what extent did the music make you feel ,HAPPY,30MonoWAV/30MonoH2.wav,2,2,1,6,,,,,0,13,13,5,0,1,1,6,,,,,,,,,1,2.952864659993793,,,110,001,2019_Sep_10_1309,MusicAffectPsychophysiology2019,3.0.5,None,
To what extent did the music make you feel ,ACTIVE,30MonoWAV/30MonoH2.wav,2,2,1,6,,,,,0,13,13,5,0,2,2,9,,,,,,,,,5,1.7532055150004453,,,110,001,2019_Sep_10_1309,MusicAffectPsychophysiology2019,3.0.5,None,
To what extent did the music make you feel ,ASHAMED,30MonoWAV/30MonoH2.wav,2,2,1,6,,,,,0,13,13,5,0,3,3,4,,,,,,,,,1,1.0672081760058063,,,110,001,2019_Sep_10_1309,MusicAffectPsychophysiology2019,3.0.5,None,
To what extent did the music make you feel ,SAD,30MonoWAV/30MonoH2.wav,2,2,1,6,,,,,0,13,13,5,0,4,4,0,,,,,,,,,1,1.7531728719986859,,,110,001,2019_Sep_10_1309,MusicAffectPsychophysiology2019,3.0.5,None,
To what extent did the music make you feel ,ANGRY,30MonoWAV/30MonoH2.wav,2,2,1,6,,,,,0,13,13,5,0,5,5,2,,,,,,,,,1,0.9189624230057234,,,110,001,2019_Sep_10_1309,MusicAffectPsychophysiology2019,3.0.5,None,
To what extent did the music make you feel ,TENDER,30MonoWAV/30MonoH2.wav,2,2,1,6,,,,,0,13,13,5,0,6,6,10,,,,,,,,,1,1.0031714840006316,,,110,001,2019_Sep_10_1309,MusicAffectPsychophysiology2019,3.0.5,None,
To what extent did the music make you feel ,FRUSTRATED,30MonoWAV/30MonoH2.wav,2,2,1,6,,,,,0,13,13,5,0,7,7,3,,,,,,,,,1,0.7191539220002596,,,110,001,2019_Sep_10_1309,MusicAffectPsychophysiology2019,3.0.5,None,
To what extent did the music make you feel ,GUILTY,30MonoWAV/30MonoH2.wav,2,2,1,6,,,,,0,13,13,5,0,8,8,5,,,,,,,,,1,0.8695563529981882,,,110,001,2019_Sep_10_1309,MusicAffectPsychophysiology2019,3.0.5,None,
To what extent did the music make you feel ,ALERT,30MonoWAV/30MonoH2.wav,2,2,1,6,,,,,0,13,13,5,0,9,9,8,,,,,,,,,4,3.4516415990001406,,,110,001,2019_Sep_10_1309,MusicAffectPsychophysiology2019,3.0.5,None,
To what extent did the music make you feel ,EXCITED,30MonoWAV/30MonoH2.wav,2,2,1,6,,,,,0,13,13,5,0,10,10,7,,,,,,,,,4,2.3860914850010886,,,110,001,2019_Sep_10_1309,MusicAffectPsychophysiology2019,3.0.5,None,
To what extent did the music make you feel ,ANXIOUS ,30MonoWAV/30MonoH2.wav,2,2,1,6,,,,,0,13,13,5,0,11,11,1,,,,,,,,,1,1.0350947530023404,,,110,001,2019_Sep_10_1309,MusicAffectPsychophysiology2019,3.0.5,None,
,,30MonoWAV/30MonoH2.wav,2,2,1,6,,,,,0,13,13,5,,,,,,,,,,,,,,,,,110,001,2019_Sep_10_1309,MusicAffectPsychophysiology2019,3.0.5,None,
To what extent did the music make you feel ,SAD,30MonoWAV/30MonoF1.wav,1,2,2,1,,,,,0,14,14,0,0,0,0,0,,,5,2.2861153449994163,3,5.767732094995154,2,6.5353264049990685,1,3.3689592219961924,,,110,001,2019_Sep_10_1309,MusicAffectPsychophysiology2019,3.0.5,None,
To what extent did the music make you feel ,EXCITED,30MonoWAV/30MonoF1.wav,1,2,2,1,,,,,0,14,14,0,0,1,1,7,,,,,,,,,5,2.502282285000547,,,110,001,2019_Sep_10_1309,MusicAffectPsychophysiology2019,3.0.5,None,
To what extent did the music make you feel ,SCARED,30MonoWAV/30MonoF1.wav,1,2,2,1,,,,,0,14,14,0,0,2,2,11,,,,,,,,,3,4.13736939199589,,,110,001,2019_Sep_10_1309,MusicAffectPsychophysiology2019,3.0.5,None,
To what extent did the music make you feel ,ASHAMED,30MonoWAV/30MonoF1.wav,1,2,2,1,,,,,0,14,14,0,0,3,3,4,,,,,,,,,1,2.1018490079950425,,,110,001,2019_Sep_10_1309,MusicAffectPsychophysiology2019,3.0.5,None,
To what extent did the music make you feel ,ANGRY,30MonoWAV/30MonoF1.wav,1,2,2,1,,,,,0,14,14,0,0,4,4,2,,,,,,,,,1,0.7857035729975905,,,110,001,2019_Sep_10_1309,MusicAffectPsychophysiology2019,3.0.5,None,
To what extent did the music make you feel ,ACTIVE,30MonoWAV/30MonoF1.wav,1,2,2,1,,,,,0,14,14,0,0,5,5,9,,,,,,,,,5,2.749785290994623,,,110,001,2019_Sep_10_1309,MusicAffectPsychophysiology2019,3.0.5,None,
To what extent did the music make you feel ,FRUSTRATED,30MonoWAV/30MonoF1.wav,1,2,2,1,,,,,0,14,14,0,0,6,6,3,,,,,,,,,1,1.069707537004433,,,110,001,2019_Sep_10_1309,MusicAffectPsychophysiology2019,3.0.5,None,
To what extent did the music make you feel ,ALERT,30MonoWAV/30MonoF1.wav,1,2,2,1,,,,,0,14,14,0,0,7,7,8,,,,,,,,,5,3.499683987000026,,,110,001,2019_Sep_10_1309,MusicAffectPsychophysiology2019,3.0.5,None,
To what extent did the music make you feel ,TENDER,30MonoWAV/30MonoF1.wav,1,2,2,1,,,,,0,14,14,0,0,8,8,10,,,,,,,,,1,1.2679975749997539,,,110,001,2019_Sep_10_1309,MusicAffectPsychophysiology2019,3.0.5,None,
To what extent did the music make you feel ,ANXIOUS ,30MonoWAV/30MonoF1.wav,1,2,2,1,,,,,0,14,14,0,0,9,9,1,,,,,,,,,2,1.819233014000929,,,110,001,2019_Sep_10_1309,MusicAffectPsychophysiology2019,3.0.5,None,
To what extent did the music make you feel ,HAPPY,30MonoWAV/30MonoF1.wav,1,2,2,1,,,,,0,14,14,0,0,10,10,6,,,,,,,,,1,1.7862368619971676,,,110,001,2019_Sep_10_1309,MusicAffectPsychophysiology2019,3.0.5,None,
To what extent did the music make you feel ,GUILTY,30MonoWAV/30MonoF1.wav,1,2,2,1,,,,,0,14,14,0,0,11,11,5,,,,,,,,,1,1.1196705190013745,,,110,001,2019_Sep_10_1309,MusicAffectPsychophysiology2019,3.0.5,None,
,,30MonoWAV/30MonoF1.wav,1,2,2,1,,,,,0,14,14,0,,,,,,,,,,,,,,,,,110,001,2019_Sep_10_1309,MusicAffectPsychophysiology2019,3.0.5,None,
To what extent did the music make you feel ,ANGRY,30MonoWAV/30MonoS4.wav,1,1,3,12,,,,,0,15,15,11,0,0,0,2,,,2,4.849780204000126,1,1.2192869850041461,3,5.118951074000506,1,3.626874679001048,,,110,001,2019_Sep_10_1309,MusicAffectPsychophysiology2019,3.0.5,None,
To what extent did the music make you feel ,EXCITED,30MonoWAV/30MonoS4.wav,1,1,3,12,,,,,0,15,15,11,0,1,1,7,,,,,,,,,2,8.118053077996592,,,110,001,2019_Sep_10_1309,MusicAffectPsychophysiology2019,3.0.5,None,
To what extent did the music make you feel ,HAPPY,30MonoWAV/30MonoS4.wav,1,1,3,12,,,,,0,15,15,11,0,2,2,6,,,,,,,,,1,3.085298295998655,,,110,001,2019_Sep_10_1309,MusicAffectPsychophysiology2019,3.0.5,None,
To what extent did the music make you feel ,GUILTY,30MonoWAV/30MonoS4.wav,1,1,3,12,,,,,0,15,15,11,0,3,3,5,,,,,,,,,1,1.7364778240007581,,,110,001,2019_Sep_10_1309,MusicAffectPsychophysiology2019,3.0.5,None,
To what extent did the music make you feel ,SAD,30MonoWAV/30MonoS4.wav,1,1,3,12,,,,,0,15,15,11,0,4,4,0,,,,,,,,,2,1.7193564949993743,,,110,001,2019_Sep_10_1309,MusicAffectPsychophysiology2019,3.0.5,None,
To what extent did the music make you feel ,ALERT,30MonoWAV/30MonoS4.wav,1,1,3,12,,,,,0,15,15,11,0,5,5,8,,,,,,,,,1,2.920075767004164,,,110,001,2019_Sep_10_1309,MusicAffectPsychophysiology2019,3.0.5,None,
To what extent did the music make you feel ,SCARED,30MonoWAV/30MonoS4.wav,1,1,3,12,,,,,0,15,15,11,0,6,6,11,,,,,,,,,1,1.4003327099999296,,,110,001,2019_Sep_10_1309,MusicAffectPsychophysiology2019,3.0.5,None,
To what extent did the music make you feel ,ASHAMED,30MonoWAV/30MonoS4.wav,1,1,3,12,,,,,0,15,15,11,0,7,7,4,,,,,,,,,1,0.8191657210045378,,,110,001,2019_Sep_10_1309,MusicAffectPsychophysiology2019,3.0.5,None,
To what extent did the music make you feel ,TENDER,30MonoWAV/30MonoS4.wav,1,1,3,12,,,,,0,15,15,11,0,8,8,10,,,,,,,,,3,3.6195340630001738,,,110,001,2019_Sep_10_1309,MusicAffectPsychophysiology2019,3.0.5,None,
To what extent did the music make you feel ,FRUSTRATED,30MonoWAV/30MonoS4.wav,1,1,3,12,,,,,0,15,15,11,0,9,9,3,,,,,,,,,1,1.35907581000356,,,110,001,2019_Sep_10_1309,MusicAffectPsychophysiology2019,3.0.5,None,
To what extent did the music make you feel ,ANXIOUS ,30MonoWAV/30MonoS4.wav,1,1,3,12,,,,,0,15,15,11,0,10,10,1,,,,,,,,,1,3.386158166998939,,,110,001,2019_Sep_10_1309,MusicAffectPsychophysiology2019,3.0.5,None,
To what extent did the music make you feel ,ACTIVE,30MonoWAV/30MonoS4.wav,1,1,3,12,,,,,0,15,15,11,0,11,11,9,,,,,,,,,1,5.918059030002041,,,110,001,2019_Sep_10_1309,MusicAffectPsychophysiology2019,3.0.5,None,
,,30MonoWAV/30MonoS4.wav,1,1,3,12,,,,,0,15,15,11,,,,,,,,,,,,,,,,,110,001,2019_Sep_10_1309,MusicAffectPsychophysiology2019,3.0.5,None,
To what extent did the music make you feel ,FRUSTRATED,30MonoWAV/30MonoT2.wav,2,1,4,14,,,,,1,0,16,13,0,0,0,3,,,3,6.284591676994751,1,6.218420794997655,3,2.985787078003341,1,4.268997742001375,,,110,001,2019_Sep_10_1309,MusicAffectPsychophysiology2019,3.0.5,None,
To what extent did the music make you feel ,ASHAMED,30MonoWAV/30MonoT2.wav,2,1,4,14,,,,,1,0,16,13,0,1,1,4,,,,,,,,,1,0.9184563319940935,,,110,001,2019_Sep_10_1309,MusicAffectPsychophysiology2019,3.0.5,None,
To what extent did the music make you feel ,SCARED,30MonoWAV/30MonoT2.wav,2,1,4,14,,,,,1,0,16,13,0,2,2,11,,,,,,,,,1,1.2674010950067895,,,110,001,2019_Sep_10_1309,MusicAffectPsychophysiology2019,3.0.5,None,
To what extent did the music make you feel ,SAD,30MonoWAV/30MonoT2.wav,2,1,4,14,,,,,1,0,16,13,0,3,3,0,,,,,,,,,3,4.284620589998667,,,110,001,2019_Sep_10_1309,MusicAffectPsychophysiology2019,3.0.5,None,
To what extent did the music make you feel ,ACTIVE,30MonoWAV/30MonoT2.wav,2,1,4,14,,,,,1,0,16,13,0,4,4,9,,,,,,,,,1,3.169578843997442,,,110,001,2019_Sep_10_1309,MusicAffectPsychophysiology2019,3.0.5,None,
To what extent did the music make you feel ,EXCITED,30MonoWAV/30MonoT2.wav,2,1,4,14,,,,,1,0,16,13,0,5,5,7,,,,,,,,,3,5.018472422001651,,,110,001,2019_Sep_10_1309,MusicAffectPsychophysiology2019,3.0.5,None,
To what extent did the music make you feel ,TENDER,30MonoWAV/30MonoT2.wav,2,1,4,14,,,,,1,0,16,13,0,6,6,10,,,,,,,,,3,3.3183694379986264,,,110,001,2019_Sep_10_1309,MusicAffectPsychophysiology2019,3.0.5,None,
To what extent did the music make you feel ,ALERT,30MonoWAV/30MonoT2.wav,2,1,4,14,,,,,1,0,16,13,0,7,7,8,,,,,,,,,1,1.8360161439995863,,,110,001,2019_Sep_10_1309,MusicAffectPsychophysiology2019,3.0.5,None,
To what extent did the music make you feel ,ANXIOUS ,30MonoWAV/30MonoT2.wav,2,1,4,14,,,,,1,0,16,13,0,8,8,1,,,,,,,,,1,1.6023587309973664,,,110,001,2019_Sep_10_1309,MusicAffectPsychophysiology2019,3.0.5,None,
To what extent did the music make you feel ,GUILTY,30MonoWAV/30MonoT2.wav,2,1,4,14,,,,,1,0,16,13,0,9,9,5,,,,,,,,,1,1.1197085439998773,,,110,001,2019_Sep_10_1309,MusicAffectPsychophysiology2019,3.0.5,None,
To what extent did the music make you feel ,ANGRY,30MonoWAV/30MonoT2.wav,2,1,4,14,,,,,1,0,16,13,0,10,10,2,,,,,,,,,1,1.1851533770022797,,,110,001,2019_Sep_10_1309,MusicAffectPsychophysiology2019,3.0.5,None,
To what extent did the music make you feel ,HAPPY,30MonoWAV/30MonoT2.wav,2,1,4,14,,,,,1,0,16,13,0,11,11,6,,,,,,,,,1,1.918660760995408,,,110,001,2019_Sep_10_1309,MusicAffectPsychophysiology2019,3.0.5,None,
,,30MonoWAV/30MonoT2.wav,2,1,4,14,,,,,1,0,16,13,,,,,,,,,,,,,,,,,110,001,2019_Sep_10_1309,MusicAffectPsychophysiology2019,3.0.5,None,
To what extent did the music make you feel ,EXCITED,30MonoWAV/30MonoH1.wav,2,2,1,5,,,,,1,1,17,4,0,0,0,7,,,4,8.252101421996485,4,2.4017166910052765,3,2.683851337998931,4,2.208407393998641,,,110,001,2019_Sep_10_1309,MusicAffectPsychophysiology2019,3.0.5,None,
To what extent did the music make you feel ,GUILTY,30MonoWAV/30MonoH1.wav,2,2,1,5,,,,,1,1,17,4,0,1,1,5,,,,,,,,,1,1.5867707880024682,,,110,001,2019_Sep_10_1309,MusicAffectPsychophysiology2019,3.0.5,None,
To what extent did the music make you feel ,ACTIVE,30MonoWAV/30MonoH1.wav,2,2,1,5,,,,,1,1,17,4,0,2,2,9,,,,,,,,,4,1.2867972579988418,,,110,001,2019_Sep_10_1309,MusicAffectPsychophysiology2019,3.0.5,None,
To what extent did the music make you feel ,SCARED,30MonoWAV/30MonoH1.wav,2,2,1,5,,,,,1,1,17,4,0,3,3,11,,,,,,,,,1,2.7195743850024883,,,110,001,2019_Sep_10_1309,MusicAffectPsychophysiology2019,3.0.5,None,
To what extent did the music make you feel ,FRUSTRATED,30MonoWAV/30MonoH1.wav,2,2,1,5,,,,,1,1,17,4,0,4,4,3,,,,,,,,,1,1.0406573979998939,,,110,001,2019_Sep_10_1309,MusicAffectPsychophysiology2019,3.0.5,None,
To what extent did the music make you feel ,ALERT,30MonoWAV/30MonoH1.wav,2,2,1,5,,,,,1,1,17,4,0,5,5,8,,,,,,,,,2,3.469043666998914,,,110,001,2019_Sep_10_1309,MusicAffectPsychophysiology2019,3.0.5,None,
To what extent did the music make you feel ,ASHAMED,30MonoWAV/30MonoH1.wav,2,2,1,5,,,,,1,1,17,4,0,6,6,4,,,,,,,,,1,0.7352920189950964,,,110,001,2019_Sep_10_1309,MusicAffectPsychophysiology2019,3.0.5,None,
To what extent did the music make you feel ,HAPPY,30MonoWAV/30MonoH1.wav,2,2,1,5,,,,,1,1,17,4,0,7,7,6,,,,,,,,,3,4.48490887999651,,,110,001,2019_Sep_10_1309,MusicAffectPsychophysiology2019,3.0.5,None,
To what extent did the music make you feel ,SAD,30MonoWAV/30MonoH1.wav,2,2,1,5,,,,,1,1,17,4,0,8,8,0,,,,,,,,,1,2.4692882820017985,,,110,001,2019_Sep_10_1309,MusicAffectPsychophysiology2019,3.0.5,None,
To what extent did the music make you feel ,ANXIOUS ,30MonoWAV/30MonoH1.wav,2,2,1,5,,,,,1,1,17,4,0,9,9,1,,,,,,,,,1,0.868964192995918,,,110,001,2019_Sep_10_1309,MusicAffectPsychophysiology2019,3.0.5,None,
To what extent did the music make you feel ,TENDER,30MonoWAV/30MonoH1.wav,2,2,1,5,,,,,1,1,17,4,0,10,10,10,,,,,,,,,1,1.4851360319953528,,,110,001,2019_Sep_10_1309,MusicAffectPsychophysiology2019,3.0.5,None,
To what extent did the music make you feel ,ANGRY,30MonoWAV/30MonoH1.wav,2,2,1,5,,,,,1,1,17,4,0,11,11,2,,,,,,,,,1,1.3201632450000034,,,110,001,2019_Sep_10_1309,MusicAffectPsychophysiology2019,3.0.5,None,
,,30MonoWAV/30MonoH1.wav,2,2,1,5,,,,,1,1,17,4,,,,,,,,,,,,,,,,,110,001,2019_Sep_10_1309,MusicAffectPsychophysiology2019,3.0.5,None,
To what extent did the music make you feel ,GUILTY,30MonoWAV/30MonoT1.wav,2,1,4,13,,,,,1,2,18,12,0,0,0,5,,,2,8.418622895005683,1,4.585668679996161,3,4.135619364999002,1,1.533345919000567,,,110,001,2019_Sep_10_1309,MusicAffectPsychophysiology2019,3.0.5,None,
To what extent did the music make you feel ,ASHAMED,30MonoWAV/30MonoT1.wav,2,1,4,13,,,,,1,2,18,12,0,1,1,4,,,,,,,,,1,0.7998400190044777,,,110,001,2019_Sep_10_1309,MusicAffectPsychophysiology2019,3.0.5,None,
To what extent did the music make you feel ,FRUSTRATED,30MonoWAV/30MonoT1.wav,2,1,4,13,,,,,1,2,18,12,0,2,2,3,,,,,,,,,1,0.7855823019999661,,,110,001,2019_Sep_10_1309,MusicAffectPsychophysiology2019,3.0.5,None,
To what extent did the music make you feel ,TENDER,30MonoWAV/30MonoT1.wav,2,1,4,13,,,,,1,2,18,12,0,3,3,10,,,,,,,,,3,2.9023979710036656,,,110,001,2019_Sep_10_1309,MusicAffectPsychophysiology2019,3.0.5,None,
To what extent did the music make you feel ,ACTIVE,30MonoWAV/30MonoT1.wav,2,1,4,13,,,,,1,2,18,12,0,4,4,9,,,,,,,,,1,2.9025614190031774,,,110,001,2019_Sep_10_1309,MusicAffectPsychophysiology2019,3.0.5,None,
To what extent did the music make you feel ,SCARED,30MonoWAV/30MonoT1.wav,2,1,4,13,,,,,1,2,18,12,0,5,5,11,,,,,,,,,1,3.6018923570009065,,,110,001,2019_Sep_10_1309,MusicAffectPsychophysiology2019,3.0.5,None,
To what extent did the music make you feel ,ANXIOUS ,30MonoWAV/30MonoT1.wav,2,1,4,13,,,,,1,2,18,12,0,6,6,1,,,,,,,,,1,1.053510069999902,,,110,001,2019_Sep_10_1309,MusicAffectPsychophysiology2019,3.0.5,None,
To what extent did the music make you feel ,HAPPY,30MonoWAV/30MonoT1.wav,2,1,4,13,,,,,1,2,18,12,0,7,7,6,,,,,,,,,1,2.1194300959978136,,,110,001,2019_Sep_10_1309,MusicAffectPsychophysiology2019,3.0.5,None,
To what extent did the music make you feel ,ALERT,30MonoWAV/30MonoT1.wav,2,1,4,13,,,,,1,2,18,12,0,8,8,8,,,,,,,,,1,0.9711638519947883,,,110,001,2019_Sep_10_1309,MusicAffectPsychophysiology2019,3.0.5,None,
To what extent did the music make you feel ,EXCITED,30MonoWAV/30MonoT1.wav,2,1,4,13,,,,,1,2,18,12,0,9,9,7,,,,,,,,,1,0.987296241997683,,,110,001,2019_Sep_10_1309,MusicAffectPsychophysiology2019,3.0.5,None,
To what extent did the music make you feel ,ANGRY,30MonoWAV/30MonoT1.wav,2,1,4,13,,,,,1,2,18,12,0,10,10,2,,,,,,,,,1,0.5858262690017,,,110,001,2019_Sep_10_1309,MusicAffectPsychophysiology2019,3.0.5,None,
To what extent did the music make you feel ,SAD,30MonoWAV/30MonoT1.wav,2,1,4,13,,,,,1,2,18,12,0,11,11,0,,,,,,,,,3,4.56970279700181,,,110,001,2019_Sep_10_1309,MusicAffectPsychophysiology2019,3.0.5,None,
,,30MonoWAV/30MonoT1.wav,2,1,4,13,,,,,1,2,18,12,,,,,,,,,,,,,,,,,110,001,2019_Sep_10_1309,MusicAffectPsychophysiology2019,3.0.5,None,
To what extent did the music make you feel ,GUILTY,30MonoWAV/30MonoT4.wav,2,1,4,16,,,,,1,3,19,15,0,0,0,5,,,4,4.6997584929995355,3,3.667745113001729,3,2.4189295079995645,1,1.4727580359976855,,,110,001,2019_Sep_10_1309,MusicAffectPsychophysiology2019,3.0.5,None,
To what extent did the music make you feel ,ANGRY,30MonoWAV/30MonoT4.wav,2,1,4,16,,,,,1,3,19,15,0,1,1,2,,,,,,,,,1,1.751668803000939,,,110,001,2019_Sep_10_1309,MusicAffectPsychophysiology2019,3.0.5,None,
To what extent did the music make you feel ,ACTIVE,30MonoWAV/30MonoT4.wav,2,1,4,16,,,,,1,3,19,15,0,2,2,9,,,,,,,,,4,1.7183464970003115,,,110,001,2019_Sep_10_1309,MusicAffectPsychophysiology2019,3.0.5,None,
To what extent did the music make you feel ,HAPPY,30MonoWAV/30MonoT4.wav,2,1,4,16,,,,,1,3,19,15,0,3,3,6,,,,,,,,,3,4.8856481189941405,,,110,001,2019_Sep_10_1309,MusicAffectPsychophysiology2019,3.0.5,None,
To what extent did the music make you feel ,SCARED,30MonoWAV/30MonoT4.wav,2,1,4,16,,,,,1,3,19,15,0,4,4,11,,,,,,,,,1,2.351716639001097,,,110,001,2019_Sep_10_1309,MusicAffectPsychophysiology2019,3.0.5,None,
To what extent did the music make you feel ,TENDER,30MonoWAV/30MonoT4.wav,2,1,4,16,,,,,1,3,19,15,0,5,5,10,,,,,,,,,2,4.283830312997452,,,110,001,2019_Sep_10_1309,MusicAffectPsychophysiology2019,3.0.5,None,
To what extent did the music make you feel ,SAD,30MonoWAV/30MonoT4.wav,2,1,4,16,,,,,1,3,19,15,0,6,6,0,,,,,,,,,1,1.4684900889988057,,,110,001,2019_Sep_10_1309,MusicAffectPsychophysiology2019,3.0.5,None,
To what extent did the music make you feel ,ASHAMED,30MonoWAV/30MonoT4.wav,2,1,4,16,,,,,1,3,19,15,0,7,7,4,,,,,,,,,1,1.136113225002191,,,110,001,2019_Sep_10_1309,MusicAffectPsychophysiology2019,3.0.5,None,
To what extent did the music make you feel ,ALERT,30MonoWAV/30MonoT4.wav,2,1,4,16,,,,,1,3,19,15,0,8,8,8,,,,,,,,,1,5.117357692004589,,,110,001,2019_Sep_10_1309,MusicAffectPsychophysiology2019,3.0.5,None,
To what extent did the music make you feel ,EXCITED,30MonoWAV/30MonoT4.wav,2,1,4,16,,,,,1,3,19,15,0,9,9,7,,,,,,,,,4,1.8697442240008968,,,110,001,2019_Sep_10_1309,MusicAffectPsychophysiology2019,3.0.5,None,
To what extent did the music make you feel ,FRUSTRATED,30MonoWAV/30MonoT4.wav,2,1,4,16,,,,,1,3,19,15,0,10,10,3,,,,,,,,,1,0.9504493820058997,,,110,001,2019_Sep_10_1309,MusicAffectPsychophysiology2019,3.0.5,None,
To what extent did the music make you feel ,ANXIOUS ,30MonoWAV/30MonoT4.wav,2,1,4,16,,,,,1,3,19,15,0,11,11,1,,,,,,,,,1,1.4187872770053218,,,110,001,2019_Sep_10_1309,MusicAffectPsychophysiology2019,3.0.5,None,
,,30MonoWAV/30MonoT4.wav,2,1,4,16,,,,,1,3,19,15,,,,,,,,,,,,,,,,,110,001,2019_Sep_10_1309,MusicAffectPsychophysiology2019,3.0.5,None,
To what extent did the music make you feel ,ALERT,30MonoWAV/30MonoH4.wav,2,2,1,8,,,,,1,4,20,7,0,0,0,8,,,4,6.235689492001256,4,2.0862908490016707,3,3.218735408001521,3,2.535180811995815,,,110,001,2019_Sep_10_1309,MusicAffectPsychophysiology2019,3.0.5,None,
To what extent did the music make you feel ,SAD,30MonoWAV/30MonoH4.wav,2,2,1,8,,,,,1,4,20,7,0,1,1,0,,,,,,,,,1,1.1530121510004392,,,110,001,2019_Sep_10_1309,MusicAffectPsychophysiology2019,3.0.5,None,
To what extent did the music make you feel ,HAPPY,30MonoWAV/30MonoH4.wav,2,2,1,8,,,,,1,4,20,7,0,2,2,6,,,,,,,,,4,1.7360755539993988,,,110,001,2019_Sep_10_1309,MusicAffectPsychophysiology2019,3.0.5,None,
To what extent did the music make you feel ,TENDER,30MonoWAV/30MonoH4.wav,2,2,1,8,,,,,1,4,20,7,0,3,3,10,,,,,,,,,1,1.4854179969988763,,,110,001,2019_Sep_10_1309,MusicAffectPsychophysiology2019,3.0.5,None,
To what extent did the music make you feel ,ANGRY,30MonoWAV/30MonoH4.wav,2,2,1,8,,,,,1,4,20,7,0,4,4,2,,,,,,,,,1,0.7682244009993155,,,110,001,2019_Sep_10_1309,MusicAffectPsychophysiology2019,3.0.5,None,
To what extent did the music make you feel ,GUILTY,30MonoWAV/30MonoH4.wav,2,2,1,8,,,,,1,4,20,7,0,5,5,5,,,,,,,,,1,0.6360418800031766,,,110,001,2019_Sep_10_1309,MusicAffectPsychophysiology2019,3.0.5,None,
To what extent did the music make you feel ,ACTIVE,30MonoWAV/30MonoH4.wav,2,2,1,8,,,,,1,4,20,7,0,6,6,9,,,,,,,,,4,1.6192226670027594,,,110,001,2019_Sep_10_1309,MusicAffectPsychophysiology2019,3.0.5,None,
To what extent did the music make you feel ,ASHAMED,30MonoWAV/30MonoH4.wav,2,2,1,8,,,,,1,4,20,7,0,7,7,4,,,,,,,,,1,0.9182159089978086,,,110,001,2019_Sep_10_1309,MusicAffectPsychophysiology2019,3.0.5,None,
To what extent did the music make you feel ,EXCITED,30MonoWAV/30MonoH4.wav,2,2,1,8,,,,,1,4,20,7,0,8,8,7,,,,,,,,,4,1.3682134230039082,,,110,001,2019_Sep_10_1309,MusicAffectPsychophysiology2019,3.0.5,None,
To what extent did the music make you feel ,SCARED,30MonoWAV/30MonoH4.wav,2,2,1,8,,,,,1,4,20,7,0,9,9,11,,,,,,,,,1,2.76995070099656,,,110,001,2019_Sep_10_1309,MusicAffectPsychophysiology2019,3.0.5,None,
To what extent did the music make you feel ,FRUSTRATED,30MonoWAV/30MonoH4.wav,2,2,1,8,,,,,1,4,20,7,0,10,10,3,,,,,,,,,1,0.686449253000319,,,110,001,2019_Sep_10_1309,MusicAffectPsychophysiology2019,3.0.5,None,
To what extent did the music make you feel ,ANXIOUS ,30MonoWAV/30MonoH4.wav,2,2,1,8,,,,,1,4,20,7,0,11,11,1,,,,,,,,,1,0.6021473339933436,,,110,001,2019_Sep_10_1309,MusicAffectPsychophysiology2019,3.0.5,None,
,,30MonoWAV/30MonoH4.wav,2,2,1,8,,,,,1,4,20,7,,,,,,,,,,,,,,,,,110,001,2019_Sep_10_1309,MusicAffectPsychophysiology2019,3.0.5,None,
To what extent did the music make you feel ,ANGRY,30MonoWAV/30MonoF1.wav,1,2,2,1,,,,,1,5,21,0,0,0,0,2,,,4,4.768943126000522,1,4.668132459002663,3,5.352619751996826,1,1.1748567879985785,,,110,001,2019_Sep_10_1309,MusicAffectPsychophysiology2019,3.0.5,None,
To what extent did the music make you feel ,EXCITED,30MonoWAV/30MonoF1.wav,1,2,2,1,,,,,1,5,21,0,0,1,1,7,,,,,,,,,4,3.4914493359974585,,,110,001,2019_Sep_10_1309,MusicAffectPsychophysiology2019,3.0.5,None,
To what extent did the music make you feel ,FRUSTRATED,30MonoWAV/30MonoF1.wav,1,2,2,1,,,,,1,5,21,0,0,2,2,3,,,,,,,,,1,1.785904568998376,,,110,001,2019_Sep_10_1309,MusicAffectPsychophysiology2019,3.0.5,None,
To what extent did the music make you feel ,ACTIVE,30MonoWAV/30MonoF1.wav,1,2,2,1,,,,,1,5,21,0,0,3,3,9,,,,,,,,,4,2.4865589030014235,,,110,001,2019_Sep_10_1309,MusicAffectPsychophysiology2019,3.0.5,None,
To what extent did the music make you feel ,TENDER,30MonoWAV/30MonoF1.wav,1,2,2,1,,,,,1,5,21,0,0,4,4,10,,,,,,,,,1,2.6187498880026396,,,110,001,2019_Sep_10_1309,MusicAffectPsychophysiology2019,3.0.5,None,
To what extent did the music make you feel ,SAD,30MonoWAV/30MonoF1.wav,1,2,2,1,,,,,1,5,21,0,0,5,5,0,,,,,,,,,1,1.3697664999999688,,,110,001,2019_Sep_10_1309,MusicAffectPsychophysiology2019,3.0.5,None,
To what extent did the music make you feel ,ALERT,30MonoWAV/30MonoF1.wav,1,2,2,1,,,,,1,5,21,0,0,6,6,8,,,,,,,,,4,1.7862185900012264,,,110,001,2019_Sep_10_1309,MusicAffectPsychophysiology2019,3.0.5,None,
To what extent did the music make you feel ,ANXIOUS ,30MonoWAV/30MonoF1.wav,1,2,2,1,,,,,1,5,21,0,0,7,7,1,,,,,,,,,2,1.7023163980047684,,,110,001,2019_Sep_10_1309,MusicAffectPsychophysiology2019,3.0.5,None,
To what extent did the music make you feel ,ASHAMED,30MonoWAV/30MonoF1.wav,1,2,2,1,,,,,1,5,21,0,0,8,8,4,,,,,,,,,1,0.7359333579952363,,,110,001,2019_Sep_10_1309,MusicAffectPsychophysiology2019,3.0.5,None,
To what extent did the music make you feel ,SCARED,30MonoWAV/30MonoF1.wav,1,2,2,1,,,,,1,5,21,0,0,9,9,11,,,,,,,,,3,2.6021225779986707,,,110,001,2019_Sep_10_1309,MusicAffectPsychophysiology2019,3.0.5,None,
To what extent did the music make you feel ,HAPPY,30MonoWAV/30MonoF1.wav,1,2,2,1,,,,,1,5,21,0,0,10,10,6,,,,,,,,,1,4.835683222001535,,,110,001,2019_Sep_10_1309,MusicAffectPsychophysiology2019,3.0.5,None,
To what extent did the music make you feel ,GUILTY,30MonoWAV/30MonoF1.wav,1,2,2,1,,,,,1,5,21,0,0,11,11,5,,,,,,,,,1,1.0030961890006438,,,110,001,2019_Sep_10_1309,MusicAffectPsychophysiology2019,3.0.5,None,
,,30MonoWAV/30MonoF1.wav,1,2,2,1,,,,,1,5,21,0,,,,,,,,,,,,,,,,,110,001,2019_Sep_10_1309,MusicAffectPsychophysiology2019,3.0.5,None,
To what extent did the music make you feel ,SAD,30MonoWAV/30MonoF4.wav,1,2,2,4,,,,,1,6,22,3,0,0,0,0,,,4,3.516551149004954,2,4.901887560998148,3,2.951730758002668,1,1.90089571900171,,,110,001,2019_Sep_10_1309,MusicAffectPsychophysiology2019,3.0.5,None,
To what extent did the music make you feel ,GUILTY,30MonoWAV/30MonoF4.wav,1,2,2,4,,,,,1,6,22,3,0,1,1,5,,,,,,,,,1,0.7526163470029132,,,110,001,2019_Sep_10_1309,MusicAffectPsychophysiology2019,3.0.5,None,
To what extent did the music make you feel ,ANGRY,30MonoWAV/30MonoF4.wav,1,2,2,4,,,,,1,6,22,3,0,2,2,2,,,,,,,,,1,1.5025349869974889,,,110,001,2019_Sep_10_1309,MusicAffectPsychophysiology2019,3.0.5,None,
To what extent did the music make you feel ,EXCITED,30MonoWAV/30MonoF4.wav,1,2,2,4,,,,,1,6,22,3,0,3,3,7,,,,,,,,,5,1.1185330520020216,,,110,001,2019_Sep_10_1309,MusicAffectPsychophysiology2019,3.0.5,None,
To what extent did the music make you feel ,HAPPY,30MonoWAV/30MonoF4.wav,1,2,2,4,,,,,1,6,22,3,0,4,4,6,,,,,,,,,2,5.3520251880036085,,,110,001,2019_Sep_10_1309,MusicAffectPsychophysiology2019,3.0.5,None,
To what extent did the music make you feel ,ASHAMED,30MonoWAV/30MonoF4.wav,1,2,2,4,,,,,1,6,22,3,0,5,5,4,,,,,,,,,1,1.2030775759994867,,,110,001,2019_Sep_10_1309,MusicAffectPsychophysiology2019,3.0.5,None,
To what extent did the music make you feel ,ALERT,30MonoWAV/30MonoF4.wav,1,2,2,4,,,,,1,6,22,3,0,6,6,8,,,,,,,,,5,3.1031776090021594,,,110,001,2019_Sep_10_1309,MusicAffectPsychophysiology2019,3.0.5,None,
To what extent did the music make you feel ,ANXIOUS ,30MonoWAV/30MonoF4.wav,1,2,2,4,,,,,1,6,22,3,0,7,7,1,,,,,,,,,1,0.9688974050004617,,,110,001,2019_Sep_10_1309,MusicAffectPsychophysiology2019,3.0.5,None,
To what extent did the music make you feel ,ACTIVE,30MonoWAV/30MonoF4.wav,1,2,2,4,,,,,1,6,22,3,0,8,8,9,,,,,,,,,5,1.3187911470013205,,,110,001,2019_Sep_10_1309,MusicAffectPsychophysiology2019,3.0.5,None,
To what extent did the music make you feel ,FRUSTRATED,30MonoWAV/30MonoF4.wav,1,2,2,4,,,,,1,6,22,3,0,9,9,3,,,,,,,,,1,0.9195744099997682,,,110,001,2019_Sep_10_1309,MusicAffectPsychophysiology2019,3.0.5,None,
To what extent did the music make you feel ,SCARED,30MonoWAV/30MonoF4.wav,1,2,2,4,,,,,1,6,22,3,0,10,10,11,,,,,,,,,1,0.7365882309968583,,,110,001,2019_Sep_10_1309,MusicAffectPsychophysiology2019,3.0.5,None,
To what extent did the music make you feel ,TENDER,30MonoWAV/30MonoF4.wav,1,2,2,4,,,,,1,6,22,3,0,11,11,10,,,,,,,,,1,4.703399768994132,,,110,001,2019_Sep_10_1309,MusicAffectPsychophysiology2019,3.0.5,None,
,,30MonoWAV/30MonoF4.wav,1,2,2,4,,,,,1,6,22,3,,,,,,,,,,,,,,,,,110,001,2019_Sep_10_1309,MusicAffectPsychophysiology2019,3.0.5,None,
To what extent did the music make you feel ,SAD,30MonoWAV/30MonoH3.wav,2,2,1,7,,,,,1,7,23,6,0,0,0,0,,,5,3.318927505002648,4,4.718705387000227,2,1.987029183001141,1,2.2737462369987043,,,110,001,2019_Sep_10_1309,MusicAffectPsychophysiology2019,3.0.5,None,
To what extent did the music make you feel ,ANXIOUS ,30MonoWAV/30MonoH3.wav,2,2,1,7,,,,,1,7,23,6,0,1,1,1,,,,,,,,,1,1.136035676994652,,,110,001,2019_Sep_10_1309,MusicAffectPsychophysiology2019,3.0.5,None,
To what extent did the music make you feel ,ANGRY,30MonoWAV/30MonoH3.wav,2,2,1,7,,,,,1,7,23,6,0,2,2,2,,,,,,,,,1,0.8026297840042389,,,110,001,2019_Sep_10_1309,MusicAffectPsychophysiology2019,3.0.5,None,
To what extent did the music make you feel ,TENDER,30MonoWAV/30MonoH3.wav,2,2,1,7,,,,,1,7,23,6,0,3,3,10,,,,,,,,,1,0.8499111400014954,,,110,001,2019_Sep_10_1309,MusicAffectPsychophysiology2019,3.0.5,None,
To what extent did the music make you feel ,EXCITED,30MonoWAV/30MonoH3.wav,2,2,1,7,,,,,1,7,23,6,0,4,4,7,,,,,,,,,5,1.2185681060000206,,,110,001,2019_Sep_10_1309,MusicAffectPsychophysiology2019,3.0.5,None,
To what extent did the music make you feel ,FRUSTRATED,30MonoWAV/30MonoH3.wav,2,2,1,7,,,,,1,7,23,6,0,5,5,3,,,,,,,,,1,1.0084614049992524,,,110,001,2019_Sep_10_1309,MusicAffectPsychophysiology2019,3.0.5,None,
To what extent did the music make you feel ,ACTIVE,30MonoWAV/30MonoH3.wav,2,2,1,7,,,,,1,7,23,6,0,6,6,9,,,,,,,,,5,1.3358825879986398,,,110,001,2019_Sep_10_1309,MusicAffectPsychophysiology2019,3.0.5,None,
To what extent did the music make you feel ,GUILTY,30MonoWAV/30MonoH3.wav,2,2,1,7,,,,,1,7,23,6,0,7,7,5,,,,,,,,,1,1.186520458002633,,,110,001,2019_Sep_10_1309,MusicAffectPsychophysiology2019,3.0.5,None,
To what extent did the music make you feel ,ALERT,30MonoWAV/30MonoH3.wav,2,2,1,7,,,,,1,7,23,6,0,8,8,8,,,,,,,,,3,3.619743830997322,,,110,001,2019_Sep_10_1309,MusicAffectPsychophysiology2019,3.0.5,None,
To what extent did the music make you feel ,HAPPY,30MonoWAV/30MonoH3.wav,2,2,1,7,,,,,1,7,23,6,0,9,9,6,,,,,,,,,2,4.418619916999887,,,110,001,2019_Sep_10_1309,MusicAffectPsychophysiology2019,3.0.5,None,
To what extent did the music make you feel ,SCARED,30MonoWAV/30MonoH3.wav,2,2,1,7,,,,,1,7,23,6,0,10,10,11,,,,,,,,,1,0.9518325729950448,,,110,001,2019_Sep_10_1309,MusicAffectPsychophysiology2019,3.0.5,None,
To what extent did the music make you feel ,ASHAMED,30MonoWAV/30MonoH3.wav,2,2,1,7,,,,,1,7,23,6,0,11,11,4,,,,,,,,,1,1.1527604660004727,,,110,001,2019_Sep_10_1309,MusicAffectPsychophysiology2019,3.0.5,None,
,,30MonoWAV/30MonoH3.wav,2,2,1,7,,,,,1,7,23,6,,,,,,,,,,,,,,,,,110,001,2019_Sep_10_1309,MusicAffectPsychophysiology2019,3.0.5,None,
To what extent did the music make you feel ,SCARED,30MonoWAV/30MonoF2.wav,1,2,2,2,,,,,1,8,24,1,0,0,0,11,,,4,3.11584193300223,1,3.2347915599966655,3,2.7526863509992836,4,2.3856545579983504,,,110,001,2019_Sep_10_1309,MusicAffectPsychophysiology2019,3.0.5,None,
To what extent did the music make you feel ,ASHAMED,30MonoWAV/30MonoF2.wav,1,2,2,2,,,,,1,8,24,1,0,1,1,4,,,,,,,,,1,2.7026800150051713,,,110,001,2019_Sep_10_1309,MusicAffectPsychophysiology2019,3.0.5,None,
To what extent did the music make you feel ,FRUSTRATED,30MonoWAV/30MonoF2.wav,1,2,2,2,,,,,1,8,24,1,0,2,2,3,,,,,,,,,1,0.8487498809990939,,,110,001,2019_Sep_10_1309,MusicAffectPsychophysiology2019,3.0.5,None,
To what extent did the music make you feel ,HAPPY,30MonoWAV/30MonoF2.wav,1,2,2,2,,,,,1,8,24,1,0,3,3,6,,,,,,,,,2,1.1839846809962182,,,110,001,2019_Sep_10_1309,MusicAffectPsychophysiology2019,3.0.5,None,
To what extent did the music make you feel ,ANXIOUS ,30MonoWAV/30MonoF2.wav,1,2,2,2,,,,,1,8,24,1,0,4,4,1,,,,,,,,,1,5.619094503999804,,,110,001,2019_Sep_10_1309,MusicAffectPsychophysiology2019,3.0.5,None,
To what extent did the music make you feel ,ACTIVE,30MonoWAV/30MonoF2.wav,1,2,2,2,,,,,1,8,24,1,0,5,5,9,,,,,,,,,4,1.451417707001383,,,110,001,2019_Sep_10_1309,MusicAffectPsychophysiology2019,3.0.5,None,
To what extent did the music make you feel ,ALERT,30MonoWAV/30MonoF2.wav,1,2,2,2,,,,,1,8,24,1,0,6,6,8,,,,,,,,,5,1.7863053900000523,,,110,001,2019_Sep_10_1309,MusicAffectPsychophysiology2019,3.0.5,None,
To what extent did the music make you feel ,GUILTY,30MonoWAV/30MonoF2.wav,1,2,2,2,,,,,1,8,24,1,0,7,7,5,,,,,,,,,1,1.800626871001441,,,110,001,2019_Sep_10_1309,MusicAffectPsychophysiology2019,3.0.5,None,
To what extent did the music make you feel ,ANGRY,30MonoWAV/30MonoF2.wav,1,2,2,2,,,,,1,8,24,1,0,8,8,2,,,,,,,,,1,0.9857137780054472,,,110,001,2019_Sep_10_1309,MusicAffectPsychophysiology2019,3.0.5,None,
To what extent did the music make you feel ,SAD,30MonoWAV/30MonoF2.wav,1,2,2,2,,,,,1,8,24,1,0,9,9,0,,,,,,,,,1,1.3354191159960465,,,110,001,2019_Sep_10_1309,MusicAffectPsychophysiology2019,3.0.5,None,
To what extent did the music make you feel ,EXCITED,30MonoWAV/30MonoF2.wav,1,2,2,2,,,,,1,8,24,1,0,10,10,7,,,,,,,,,5,1.2689601210004184,,,110,001,2019_Sep_10_1309,MusicAffectPsychophysiology2019,3.0.5,None,
To what extent did the music make you feel ,TENDER,30MonoWAV/30MonoF2.wav,1,2,2,2,,,,,1,8,24,1,0,11,11,10,,,,,,,,,1,1.403079110001272,,,110,001,2019_Sep_10_1309,MusicAffectPsychophysiology2019,3.0.5,None,
,,30MonoWAV/30MonoF2.wav,1,2,2,2,,,,,1,8,24,1,,,,,,,,,,,,,,,,,110,001,2019_Sep_10_1309,MusicAffectPsychophysiology2019,3.0.5,None,
To what extent did the music make you feel ,ALERT,30MonoWAV/30MonoF3.wav,1,2,2,3,,,,,1,9,25,2,0,0,0,8,,,4,3.5033659980035736,2,2.84904055899824,1,2.618549423998047,4,2.9736965320043964,,,110,001,2019_Sep_10_1309,MusicAffectPsychophysiology2019,3.0.5,None,
To what extent did the music make you feel ,HAPPY,30MonoWAV/30MonoF3.wav,1,2,2,3,,,,,1,9,25,2,0,1,1,6,,,,,,,,,2,3.1361716440005694,,,110,001,2019_Sep_10_1309,MusicAffectPsychophysiology2019,3.0.5,None,
To what extent did the music make you feel ,GUILTY,30MonoWAV/30MonoF3.wav,1,2,2,3,,,,,1,9,25,2,0,2,2,5,,,,,,,,,1,1.0356825209964882,,,110,001,2019_Sep_10_1309,MusicAffectPsychophysiology2019,3.0.5,None,
To what extent did the music make you feel ,EXCITED,30MonoWAV/30MonoF3.wav,1,2,2,3,,,,,1,9,25,2,0,3,3,7,,,,,,,,,5,1.7993735039999592,,,110,001,2019_Sep_10_1309,MusicAffectPsychophysiology2019,3.0.5,None,
To what extent did the music make you feel ,SAD,30MonoWAV/30MonoF3.wav,1,2,2,3,,,,,1,9,25,2,0,4,4,0,,,,,,,,,1,1.6355368299991824,,,110,001,2019_Sep_10_1309,MusicAffectPsychophysiology2019,3.0.5,None,
To what extent did the music make you feel ,ACTIVE,30MonoWAV/30MonoF3.wav,1,2,2,3,,,,,1,9,25,2,0,5,5,9,,,,,,,,,4,1.3701473980036099,,,110,001,2019_Sep_10_1309,MusicAffectPsychophysiology2019,3.0.5,None,
To what extent did the music make you feel ,ASHAMED,30MonoWAV/30MonoF3.wav,1,2,2,3,,,,,1,9,25,2,0,6,6,4,,,,,,,,,1,1.3196067799945013,,,110,001,2019_Sep_10_1309,MusicAffectPsychophysiology2019,3.0.5,None,
To what extent did the music make you feel ,ANXIOUS ,30MonoWAV/30MonoF3.wav,1,2,2,3,,,,,1,9,25,2,0,7,7,1,,,,,,,,,2,2.952312476998486,,,110,001,2019_Sep_10_1309,MusicAffectPsychophysiology2019,3.0.5,None,
To what extent did the music make you feel ,SCARED,30MonoWAV/30MonoF3.wav,1,2,2,3,,,,,1,9,25,2,0,8,8,11,,,,,,,,,2,3.2501449789997423,,,110,001,2019_Sep_10_1309,MusicAffectPsychophysiology2019,3.0.5,None,
To what extent did the music make you feel ,FRUSTRATED,30MonoWAV/30MonoF3.wav,1,2,2,3,,,,,1,9,25,2,0,9,9,3,,,,,,,,,1,1.785237292999227,,,110,001,2019_Sep_10_1309,MusicAffectPsychophysiology2019,3.0.5,None,
To what extent did the music make you feel ,TENDER,30MonoWAV/30MonoF3.wav,1,2,2,3,,,,,1,9,25,2,0,10,10,10,,,,,,,,,1,1.4855250540058478,,,110,001,2019_Sep_10_1309,MusicAffectPsychophysiology2019,3.0.5,None,
To what extent did the music make you feel ,ANGRY,30MonoWAV/30MonoF3.wav,1,2,2,3,,,,,1,9,25,2,0,11,11,2,,,,,,,,,1,1.0023888199939393,,,110,001,2019_Sep_10_1309,MusicAffectPsychophysiology2019,3.0.5,None,
,,30MonoWAV/30MonoF3.wav,1,2,2,3,,,,,1,9,25,2,,,,,,,,,,,,,,,,,110,001,2019_Sep_10_1309,MusicAffectPsychophysiology2019,3.0.5,None,
To what extent did the music make you feel ,EXCITED,30MonoWAV/30MonoS4.wav,1,1,3,12,,,,,1,10,26,11,0,0,0,7,,,2,6.834763302002102,2,5.402328504002071,3,1.6026405450029415,1,3.1020108409938985,,,110,001,2019_Sep_10_1309,MusicAffectPsychophysiology2019,3.0.5,None,
To what extent did the music make you feel ,FRUSTRATED,30MonoWAV/30MonoS4.wav,1,1,3,12,,,,,1,10,26,11,0,1,1,3,,,,,,,,,1,1.4676782250026008,,,110,001,2019_Sep_10_1309,MusicAffectPsychophysiology2019,3.0.5,None,
To what extent did the music make you feel ,TENDER,30MonoWAV/30MonoS4.wav,1,1,3,12,,,,,1,10,26,11,0,2,2,10,,,,,,,,,4,2.7525266820011893,,,110,001,2019_Sep_10_1309,MusicAffectPsychophysiology2019,3.0.5,None,
To what extent did the music make you feel ,ASHAMED,30MonoWAV/30MonoS4.wav,1,1,3,12,,,,,1,10,26,11,0,3,3,4,,,,,,,,,1,2.153242151005543,,,110,001,2019_Sep_10_1309,MusicAffectPsychophysiology2019,3.0.5,None,
To what extent did the music make you feel ,ANGRY,30MonoWAV/30MonoS4.wav,1,1,3,12,,,,,1,10,26,11,0,4,4,2,,,,,,,,,1,0.6340947810022044,,,110,001,2019_Sep_10_1309,MusicAffectPsychophysiology2019,3.0.5,None,
To what extent did the music make you feel ,SAD,30MonoWAV/30MonoS4.wav,1,1,3,12,,,,,1,10,26,11,0,5,5,0,,,,,,,,,2,1.6362553729995852,,,110,001,2019_Sep_10_1309,MusicAffectPsychophysiology2019,3.0.5,None,
To what extent did the music make you feel ,GUILTY,30MonoWAV/30MonoS4.wav,1,1,3,12,,,,,1,10,26,11,0,6,6,5,,,,,,,,,1,0.9021444850004627,,,110,001,2019_Sep_10_1309,MusicAffectPsychophysiology2019,3.0.5,None,
To what extent did the music make you feel ,ANXIOUS ,30MonoWAV/30MonoS4.wav,1,1,3,12,,,,,1,10,26,11,0,7,7,1,,,,,,,,,1,1.2361691359983524,,,110,001,2019_Sep_10_1309,MusicAffectPsychophysiology2019,3.0.5,None,
To what extent did the music make you feel ,HAPPY,30MonoWAV/30MonoS4.wav,1,1,3,12,,,,,1,10,26,11,0,8,8,6,,,,,,,,,1,1.1361607700018794,,,110,001,2019_Sep_10_1309,MusicAffectPsychophysiology2019,3.0.5,None,
To what extent did the music make you feel ,SCARED,30MonoWAV/30MonoS4.wav,1,1,3,12,,,,,1,10,26,11,0,9,9,11,,,,,,,,,1,3.269968765998783,,,110,001,2019_Sep_10_1309,MusicAffectPsychophysiology2019,3.0.5,None,
To what extent did the music make you feel ,ACTIVE,30MonoWAV/30MonoS4.wav,1,1,3,12,,,,,1,10,26,11,0,10,10,9,,,,,,,,,1,1.5026854789975914,,,110,001,2019_Sep_10_1309,MusicAffectPsychophysiology2019,3.0.5,None,
To what extent did the music make you feel ,ALERT,30MonoWAV/30MonoS4.wav,1,1,3,12,,,,,1,10,26,11,0,11,11,8,,,,,,,,,1,1.6670397709967801,,,110,001,2019_Sep_10_1309,MusicAffectPsychophysiology2019,3.0.5,None,
,,30MonoWAV/30MonoS4.wav,1,1,3,12,,,,,1,10,26,11,,,,,,,,,,,,,,,,,110,001,2019_Sep_10_1309,MusicAffectPsychophysiology2019,3.0.5,None,
To what extent did the music make you feel ,TENDER,30MonoWAV/30MonoS3.wav,1,1,3,11,,,,,1,11,27,10,0,0,0,10,,,3,5.001756921003107,1,4.085957223003788,2,3.582617890999245,1,1.5435515330027556,,,110,001,2019_Sep_10_1309,MusicAffectPsychophysiology2019,3.0.5,None,
To what extent did the music make you feel ,ANGRY,30MonoWAV/30MonoS3.wav,1,1,3,11,,,,,1,11,27,10,0,1,1,2,,,,,,,,,1,1.6853735010008677,,,110,001,2019_Sep_10_1309,MusicAffectPsychophysiology2019,3.0.5,None,
To what extent did the music make you feel ,EXCITED,30MonoWAV/30MonoS3.wav,1,1,3,11,,,,,1,11,27,10,0,2,2,7,,,,,,,,,3,2.2359044990007533,,,110,001,2019_Sep_10_1309,MusicAffectPsychophysiology2019,3.0.5,None,
To what extent did the music make you feel ,HAPPY,30MonoWAV/30MonoS3.wav,1,1,3,11,,,,,1,11,27,10,0,3,3,6,,,,,,,,,1,1.5680338780002785,,,110,001,2019_Sep_10_1309,MusicAffectPsychophysiology2019,3.0.5,None,
To what extent did the music make you feel ,FRUSTRATED,30MonoWAV/30MonoS3.wav,1,1,3,11,,,,,1,11,27,10,0,4,4,3,,,,,,,,,1,1.4186484129968449,,,110,001,2019_Sep_10_1309,MusicAffectPsychophysiology2019,3.0.5,None,
To what extent did the music make you feel ,ACTIVE,30MonoWAV/30MonoS3.wav,1,1,3,11,,,,,1,11,27,10,0,5,5,9,,,,,,,,,4,2.1518752459960524,,,110,001,2019_Sep_10_1309,MusicAffectPsychophysiology2019,3.0.5,None,
To what extent did the music make you feel ,GUILTY,30MonoWAV/30MonoS3.wav,1,1,3,11,,,,,1,11,27,10,0,6,6,5,,,,,,,,,1,1.3034676120005315,,,110,001,2019_Sep_10_1309,MusicAffectPsychophysiology2019,3.0.5,None,
To what extent did the music make you feel ,ALERT,30MonoWAV/30MonoS3.wav,1,1,3,11,,,,,1,11,27,10,0,7,7,8,,,,,,,,,3,4.620422439002141,,,110,001,2019_Sep_10_1309,MusicAffectPsychophysiology2019,3.0.5,None,
To what extent did the music make you feel ,SAD,30MonoWAV/30MonoS3.wav,1,1,3,11,,,,,1,11,27,10,0,8,8,0,,,,,,,,,1,1.4029189080029028,,,110,001,2019_Sep_10_1309,MusicAffectPsychophysiology2019,3.0.5,None,
To what extent did the music make you feel ,SCARED,30MonoWAV/30MonoS3.wav,1,1,3,11,,,,,1,11,27,10,0,9,9,11,,,,,,,,,3,1.308123720002186,,,110,001,2019_Sep_10_1309,MusicAffectPsychophysiology2019,3.0.5,None,
To what extent did the music make you feel ,ASHAMED,30MonoWAV/30MonoS3.wav,1,1,3,11,,,,,1,11,27,10,0,10,10,4,,,,,,,,,1,3.052095642997301,,,110,001,2019_Sep_10_1309,MusicAffectPsychophysiology2019,3.0.5,None,
To what extent did the music make you feel ,ANXIOUS ,30MonoWAV/30MonoS3.wav,1,1,3,11,,,,,1,11,27,10,0,11,11,1,,,,,,,,,2,1.5828034369988018,,,110,001,2019_Sep_10_1309,MusicAffectPsychophysiology2019,3.0.5,None,
,,30MonoWAV/30MonoS3.wav,1,1,3,11,,,,,1,11,27,10,,,,,,,,,,,,,,,,,110,001,2019_Sep_10_1309,MusicAffectPsychophysiology2019,3.0.5,None,
To what extent did the music make you feel ,HAPPY,30MonoWAV/30MonoH2.wav,2,2,1,6,,,,,1,12,28,5,0,0,0,6,,,4,5.452293556001678,4,2.833085108002706,2,3.617582486003812,1,5.485387164000713,,,110,001,2019_Sep_10_1309,MusicAffectPsychophysiology2019,3.0.5,None,
To what extent did the music make you feel ,GUILTY,30MonoWAV/30MonoH2.wav,2,2,1,6,,,,,1,12,28,5,0,1,1,5,,,,,,,,,1,2.0027096159974462,,,110,001,2019_Sep_10_1309,MusicAffectPsychophysiology2019,3.0.5,None,
To what extent did the music make you feel ,SCARED,30MonoWAV/30MonoH2.wav,2,2,1,6,,,,,1,12,28,5,0,2,2,11,,,,,,,,,2,3.419238898997719,,,110,001,2019_Sep_10_1309,MusicAffectPsychophysiology2019,3.0.5,None,
To what extent did the music make you feel ,SAD,30MonoWAV/30MonoH2.wav,2,2,1,6,,,,,1,12,28,5,0,3,3,0,,,,,,,,,1,1.3359241149955778,,,110,001,2019_Sep_10_1309,MusicAffectPsychophysiology2019,3.0.5,None,
To what extent did the music make you feel ,ANGRY,30MonoWAV/30MonoH2.wav,2,2,1,6,,,,,1,12,28,5,0,4,4,2,,,,,,,,,1,1.1686895590028143,,,110,001,2019_Sep_10_1309,MusicAffectPsychophysiology2019,3.0.5,None,
To what extent did the music make you feel ,ASHAMED,30MonoWAV/30MonoH2.wav,2,2,1,6,,,,,1,12,28,5,0,5,5,4,,,,,,,,,1,0.7696045949996915,,,110,001,2019_Sep_10_1309,MusicAffectPsychophysiology2019,3.0.5,None,
To what extent did the music make you feel ,ANXIOUS ,30MonoWAV/30MonoH2.wav,2,2,1,6,,,,,1,12,28,5,0,6,6,1,,,,,,,,,2,2.6530432530053076,,,110,001,2019_Sep_10_1309,MusicAffectPsychophysiology2019,3.0.5,None,
To what extent did the music make you feel ,ALERT,30MonoWAV/30MonoH2.wav,2,2,1,6,,,,,1,12,28,5,0,7,7,8,,,,,,,,,3,2.9856606550019933,,,110,001,2019_Sep_10_1309,MusicAffectPsychophysiology2019,3.0.5,None,
To what extent did the music make you feel ,ACTIVE,30MonoWAV/30MonoH2.wav,2,2,1,6,,,,,1,12,28,5,0,8,8,9,,,,,,,,,4,1.2531949550029822,,,110,001,2019_Sep_10_1309,MusicAffectPsychophysiology2019,3.0.5,None,
To what extent did the music make you feel ,EXCITED,30MonoWAV/30MonoH2.wav,2,2,1,6,,,,,1,12,28,5,0,9,9,7,,,,,,,,,3,3.368601561996911,,,110,001,2019_Sep_10_1309,MusicAffectPsychophysiology2019,3.0.5,None,
To what extent did the music make you feel ,TENDER,30MonoWAV/30MonoH2.wav,2,2,1,6,,,,,1,12,28,5,0,10,10,10,,,,,,,,,1,1.3017487820034148,,,110,001,2019_Sep_10_1309,MusicAffectPsychophysiology2019,3.0.5,None,
To what extent did the music make you feel ,FRUSTRATED,30MonoWAV/30MonoH2.wav,2,2,1,6,,,,,1,12,28,5,0,11,11,3,,,,,,,,,1,0.7684706590007409,,,110,001,2019_Sep_10_1309,MusicAffectPsychophysiology2019,3.0.5,None,
,,30MonoWAV/30MonoH2.wav,2,2,1,6,,,,,1,12,28,5,,,,,,,,,,,,,,,,,110,001,2019_Sep_10_1309,MusicAffectPsychophysiology2019,3.0.5,None,
To what extent did the music make you feel ,ASHAMED,30MonoWAV/30MonoS1.wav,1,1,3,9,,,,,1,13,29,8,0,0,0,4,,,1,4.033334701001877,1,5.9827167370021925,3,1.8354158729998744,1,1.1603779370052507,,,110,001,2019_Sep_10_1309,MusicAffectPsychophysiology2019,3.0.5,None,
To what extent did the music make you feel ,FRUSTRATED,30MonoWAV/30MonoS1.wav,1,1,3,9,,,,,1,13,29,8,0,1,1,3,,,,,,,,,1,0.6757872470043367,,,110,001,2019_Sep_10_1309,MusicAffectPsychophysiology2019,3.0.5,None,
To what extent did the music make you feel ,SCARED,30MonoWAV/30MonoS1.wav,1,1,3,9,,,,,1,13,29,8,0,2,2,11,,,,,,,,,1,0.9021942489998764,,,110,001,2019_Sep_10_1309,MusicAffectPsychophysiology2019,3.0.5,None,
To what extent did the music make you feel ,GUILTY,30MonoWAV/30MonoS1.wav,1,1,3,9,,,,,1,13,29,8,0,3,3,5,,,,,,,,,1,0.7028342970006634,,,110,001,2019_Sep_10_1309,MusicAffectPsychophysiology2019,3.0.5,None,
To what extent did the music make you feel ,SAD,30MonoWAV/30MonoS1.wav,1,1,3,9,,,,,1,13,29,8,0,4,4,0,,,,,,,,,2,5.903185643001052,,,110,001,2019_Sep_10_1309,MusicAffectPsychophysiology2019,3.0.5,None,
To what extent did the music make you feel ,ALERT,30MonoWAV/30MonoS1.wav,1,1,3,9,,,,,1,13,29,8,0,5,5,8,,,,,,,,,1,1.7505983430019114,,,110,001,2019_Sep_10_1309,MusicAffectPsychophysiology2019,3.0.5,None,
To what extent did the music make you feel ,ACTIVE,30MonoWAV/30MonoS1.wav,1,1,3,9,,,,,1,13,29,8,0,6,6,9,,,,,,,,,1,0.8526628139952663,,,110,001,2019_Sep_10_1309,MusicAffectPsychophysiology2019,3.0.5,None,
To what extent did the music make you feel ,TENDER,30MonoWAV/30MonoS1.wav,1,1,3,9,,,,,1,13,29,8,0,7,7,10,,,,,,,,,5,2.186149237000791,,,110,001,2019_Sep_10_1309,MusicAffectPsychophysiology2019,3.0.5,None,
To what extent did the music make you feel ,ANGRY,30MonoWAV/30MonoS1.wav,1,1,3,9,,,,,1,13,29,8,0,8,8,2,,,,,,,,,1,1.3165949070025817,,,110,001,2019_Sep_10_1309,MusicAffectPsychophysiology2019,3.0.5,None,
To what extent did the music make you feel ,ANXIOUS ,30MonoWAV/30MonoS1.wav,1,1,3,9,,,,,1,13,29,8,0,9,9,1,,,,,,,,,1,0.9351613979961257,,,110,001,2019_Sep_10_1309,MusicAffectPsychophysiology2019,3.0.5,None,
To what extent did the music make you feel ,HAPPY,30MonoWAV/30MonoS1.wav,1,1,3,9,,,,,1,13,29,8,0,10,10,6,,,,,,,,,1,1.0862791789986659,,,110,001,2019_Sep_10_1309,MusicAffectPsychophysiology2019,3.0.5,None,
To what extent did the music make you feel ,EXCITED,30MonoWAV/30MonoS1.wav,1,1,3,9,,,,,1,13,29,8,0,11,11,7,,,,,,,,,1,1.052948099997593,,,110,001,2019_Sep_10_1309,MusicAffectPsychophysiology2019,3.0.5,None,
,,30MonoWAV/30MonoS1.wav,1,1,3,9,,,,,1,13,29,8,,,,,,,,,,,,,,,,,110,001,2019_Sep_10_1309,MusicAffectPsychophysiology2019,3.0.5,None,
To what extent did the music make you feel ,ACTIVE,30MonoWAV/30MonoS2.wav,1,1,3,10,,,,,1,14,30,9,0,0,0,9,,,1,5.818604842002969,1,3.1029613690043334,2,1.2681000599986874,1,7.1521721109966165,,,110,001,2019_Sep_10_1309,MusicAffectPsychophysiology2019,3.0.5,None,
To what extent did the music make you feel ,EXCITED,30MonoWAV/30MonoS2.wav,1,1,3,10,,,,,1,14,30,9,0,1,1,7,,,,,,,,,1,0.9192146150016924,,,110,001,2019_Sep_10_1309,MusicAffectPsychophysiology2019,3.0.5,None,
To what extent did the music make you feel ,HAPPY,30MonoWAV/30MonoS2.wav,1,1,3,10,,,,,1,14,30,9,0,2,2,6,,,,,,,,,1,1.266650899000524,,,110,001,2019_Sep_10_1309,MusicAffectPsychophysiology2019,3.0.5,None,
To what extent did the music make you feel ,ASHAMED,30MonoWAV/30MonoS2.wav,1,1,3,10,,,,,1,14,30,9,0,3,3,4,,,,,,,,,1,0.9515724779994343,,,110,001,2019_Sep_10_1309,MusicAffectPsychophysiology2019,3.0.5,None,
To what extent did the music make you feel ,ANXIOUS ,30MonoWAV/30MonoS2.wav,1,1,3,10,,,,,1,14,30,9,0,4,4,1,,,,,,,,,1,1.0026518270024098,,,110,001,2019_Sep_10_1309,MusicAffectPsychophysiology2019,3.0.5,None,
To what extent did the music make you feel ,ANGRY,30MonoWAV/30MonoS2.wav,1,1,3,10,,,,,1,14,30,9,0,5,5,2,,,,,,,,,1,1.5359941290007555,,,110,001,2019_Sep_10_1309,MusicAffectPsychophysiology2019,3.0.5,None,
To what extent did the music make you feel ,FRUSTRATED,30MonoWAV/30MonoS2.wav,1,1,3,10,,,,,1,14,30,9,0,6,6,3,,,,,,,,,1,1.1351782319979975,,,110,001,2019_Sep_10_1309,MusicAffectPsychophysiology2019,3.0.5,None,
To what extent did the music make you feel ,SCARED,30MonoWAV/30MonoS2.wav,1,1,3,10,,,,,1,14,30,9,0,7,7,11,,,,,,,,,1,1.0179095220009913,,,110,001,2019_Sep_10_1309,MusicAffectPsychophysiology2019,3.0.5,None,
To what extent did the music make you feel ,GUILTY,30MonoWAV/30MonoS2.wav,1,1,3,10,,,,,1,14,30,9,0,8,8,5,,,,,,,,,1,1.351935290003894,,,110,001,2019_Sep_10_1309,MusicAffectPsychophysiology2019,3.0.5,None,
To what extent did the music make you feel ,SAD,30MonoWAV/30MonoS2.wav,1,1,3,10,,,,,1,14,30,9,0,9,9,0,,,,,,,,,1,2.320022156003688,,,110,001,2019_Sep_10_1309,MusicAffectPsychophysiology2019,3.0.5,None,
To what extent did the music make you feel ,ALERT,30MonoWAV/30MonoS2.wav,1,1,3,10,,,,,1,14,30,9,0,10,10,8,,,,,,,,,1,2.3356556260041543,,,110,001,2019_Sep_10_1309,MusicAffectPsychophysiology2019,3.0.5,None,
To what extent did the music make you feel ,TENDER,30MonoWAV/30MonoS2.wav,1,1,3,10,,,,,1,14,30,9,0,11,11,10,,,,,,,,,5,5.018609203994856,,,110,001,2019_Sep_10_1309,MusicAffectPsychophysiology2019,3.0.5,None,
,,30MonoWAV/30MonoS2.wav,1,1,3,10,,,,,1,14,30,9,,,,,,,,,,,,,,,,,110,001,2019_Sep_10_1309,MusicAffectPsychophysiology2019,3.0.5,None,
To what extent did the music make you feel ,SAD,30MonoWAV/30MonoT3.wav,2,1,4,15,,,,,1,15,31,14,0,0,0,0,,,3,7.651843496998481,3,6.26898108900059,3,2.851448815999902,1,1.8436243269970873,,,110,001,2019_Sep_10_1309,MusicAffectPsychophysiology2019,3.0.5,None,
To what extent did the music make you feel ,ANXIOUS ,30MonoWAV/30MonoT3.wav,2,1,4,15,,,,,1,15,31,14,0,1,1,1,,,,,,,,,1,1.2016785649975645,,,110,001,2019_Sep_10_1309,MusicAffectPsychophysiology2019,3.0.5,None,
To what extent did the music make you feel ,EXCITED,30MonoWAV/30MonoT3.wav,2,1,4,15,,,,,1,15,31,14,0,2,2,7,,,,,,,,,1,1.734811363996414,,,110,001,2019_Sep_10_1309,MusicAffectPsychophysiology2019,3.0.5,None,
To what extent did the music make you feel ,TENDER,30MonoWAV/30MonoT3.wav,2,1,4,15,,,,,1,15,31,14,0,3,3,10,,,,,,,,,4,2.852233290002914,,,110,001,2019_Sep_10_1309,MusicAffectPsychophysiology2019,3.0.5,None,
To what extent did the music make you feel ,ACTIVE,30MonoWAV/30MonoT3.wav,2,1,4,15,,,,,1,15,31,14,0,4,4,9,,,,,,,,,1,2.0194251049979357,,,110,001,2019_Sep_10_1309,MusicAffectPsychophysiology2019,3.0.5,None,
To what extent did the music make you feel ,ASHAMED,30MonoWAV/30MonoT3.wav,2,1,4,15,,,,,1,15,31,14,0,5,5,4,,,,,,,,,1,0.9354609009969863,,,110,001,2019_Sep_10_1309,MusicAffectPsychophysiology2019,3.0.5,None,
To what extent did the music make you feel ,GUILTY,30MonoWAV/30MonoT3.wav,2,1,4,15,,,,,1,15,31,14,0,6,6,5,,,,,,,,,1,1.334159660997102,,,110,001,2019_Sep_10_1309,MusicAffectPsychophysiology2019,3.0.5,None,
To what extent did the music make you feel ,HAPPY,30MonoWAV/30MonoT3.wav,2,1,4,15,,,,,1,15,31,14,0,7,7,6,,,,,,,,,1,2.0343124540013378,,,110,001,2019_Sep_10_1309,MusicAffectPsychophysiology2019,3.0.5,None,
To what extent did the music make you feel ,SCARED,30MonoWAV/30MonoT3.wav,2,1,4,15,,,,,1,15,31,14,0,8,8,11,,,,,,,,,1,4.1497681550026755,,,110,001,2019_Sep_10_1309,MusicAffectPsychophysiology2019,3.0.5,None,
To what extent did the music make you feel ,FRUSTRATED,30MonoWAV/30MonoT3.wav,2,1,4,15,,,,,1,15,31,14,0,9,9,3,,,,,,,,,1,0.9046615990009741,,,110,001,2019_Sep_10_1309,MusicAffectPsychophysiology2019,3.0.5,None,
To what extent did the music make you feel ,ALERT,30MonoWAV/30MonoT3.wav,2,1,4,15,,,,,1,15,31,14,0,10,10,8,,,,,,,,,1,1.0527668499998981,,,110,001,2019_Sep_10_1309,MusicAffectPsychophysiology2019,3.0.5,None,
To what extent did the music make you feel ,ANGRY,30MonoWAV/30MonoT3.wav,2,1,4,15,,,,,1,15,31,14,0,11,11,2,,,,,,,,,1,0.6679298289964208,,,110,001,2019_Sep_10_1309,MusicAffectPsychophysiology2019,3.0.5,None,
,,30MonoWAV/30MonoT3.wav,2,1,4,15,,,,,1,15,31,14,,,,,,,,,,,,,,,,,110,001,2019_Sep_10_1309,MusicAffectPsychophysiology2019,3.0.5,None,
,,,,,,,,,,,,,,,,,,,,,,,,,,,,,space,20.20563036200474,110,001,2019_Sep_10_1309,MusicAffectPsychophysiology2019,3.0.5,None,
