Instruction,Word,song,valence,arousal,affectcat,songmark,pracwords.thisRepN,pracwords.thisTrialN,pracwords.thisN,pracwords.thisIndex,songtrials.thisRepN,songtrials.thisTrialN,songtrials.thisN,songtrials.thisIndex,words.thisRepN,words.thisTrialN,words.thisN,words.thisIndex,begin.keys,begin.rt,arousalkey.keys,arousalkey.rt,valencekey.keys,valencekey.rt,likekey.keys,likekey.rt,WordResponse.keys,WordResponse.rt,key_resp_2.keys,key_resp_2.rt,participant,session,date,expName,psychopyVersion,frameRate,
,,,,,,,,,,,,,,,,,,,space,11.28933168399817,,,,,,,,,,,111,001,2019_Sep_10_1418,MusicAffectPsychophysiology2019,3.0.5,60.18649978552896,
,,,,,,,,,,,,,,,,,,,,,3,5.119182306996663,,,,,,,,,111,001,2019_Sep_10_1418,MusicAffectPsychophysiology2019,3.0.5,60.18649978552896,
,,,,,,,,,,,,,,,,,,,,,,,3,3.1024199840030633,,,,,,,111,001,2019_Sep_10_1418,MusicAffectPsychophysiology2019,3.0.5,60.18649978552896,
,,,,,,,,,,,,,,,,,,,,,,,,,3,2.9189659859985113,,,,,111,001,2019_Sep_10_1418,MusicAffectPsychophysiology2019,3.0.5,60.18649978552896,
To what extent did the music make you feel ,GUILTY,,,,,,0,0,0,5,,,,,,,,,,,,,,,,,1,3.2356841399960103,,,111,001,2019_Sep_10_1418,MusicAffectPsychophysiology2019,3.0.5,60.18649978552896,
To what extent did the music make you feel ,FRUSTRATED,,,,,,0,1,1,3,,,,,,,,,,,,,,,,,1,3.0198179309954867,,,111,001,2019_Sep_10_1418,MusicAffectPsychophysiology2019,3.0.5,60.18649978552896,
To what extent did the music make you feel ,ALERT,,,,,,0,2,2,8,,,,,,,,,,,,,,,,,1,2.6676316499942914,,,111,001,2019_Sep_10_1418,MusicAffectPsychophysiology2019,3.0.5,60.18649978552896,
To what extent did the music make you feel ,SCARED,,,,,,0,3,3,11,,,,,,,,,,,,,,,,,1,1.1686118040015572,,,111,001,2019_Sep_10_1418,MusicAffectPsychophysiology2019,3.0.5,60.18649978552896,
To what extent did the music make you feel ,ANGRY,,,,,,0,4,4,2,,,,,,,,,,,,,,,,,1,1.0858441870004754,,,111,001,2019_Sep_10_1418,MusicAffectPsychophysiology2019,3.0.5,60.18649978552896,
To what extent did the music make you feel ,HAPPY,,,,,,0,5,5,6,,,,,,,,,,,,,,,,,2,3.617949432002206,,,111,001,2019_Sep_10_1418,MusicAffectPsychophysiology2019,3.0.5,60.18649978552896,
To what extent did the music make you feel ,TENDER,,,,,,0,6,6,10,,,,,,,,,,,,,,,,,3,1.7034199359986815,,,111,001,2019_Sep_10_1418,MusicAffectPsychophysiology2019,3.0.5,60.18649978552896,
To what extent did the music make you feel ,ACTIVE,,,,,,0,7,7,9,,,,,,,,,,,,,,,,,2,2.2520195500037516,,,111,001,2019_Sep_10_1418,MusicAffectPsychophysiology2019,3.0.5,60.18649978552896,
To what extent did the music make you feel ,ASHAMED,,,,,,0,8,8,4,,,,,,,,,,,,,,,,,1,1.1022055610010284,,,111,001,2019_Sep_10_1418,MusicAffectPsychophysiology2019,3.0.5,60.18649978552896,
To what extent did the music make you feel ,EXCITED,,,,,,0,9,9,7,,,,,,,,,,,,,,,,,1,1.6027699390033376,,,111,001,2019_Sep_10_1418,MusicAffectPsychophysiology2019,3.0.5,60.18649978552896,
To what extent did the music make you feel ,ANXIOUS ,,,,,,0,10,10,1,,,,,,,,,,,,,,,,,1,1.1703797509981086,,,111,001,2019_Sep_10_1418,MusicAffectPsychophysiology2019,3.0.5,60.18649978552896,
To what extent did the music make you feel ,SAD,,,,,,0,11,11,0,,,,,,,,,,,,,,,,,1,1.136377235998225,,,111,001,2019_Sep_10_1418,MusicAffectPsychophysiology2019,3.0.5,60.18649978552896,
To what extent did the music make you feel ,EXCITED,30MonoWAV/30MonoS3.wav,1,1,3,11,,,,,0,0,0,10,0,0,0,7,,,1,6.318233922997024,1,2.9339478409965523,2,2.318306469001982,1,3.8238071439991472,,,111,001,2019_Sep_10_1418,MusicAffectPsychophysiology2019,3.0.5,60.18649978552896,
To what extent did the music make you feel ,GUILTY,30MonoWAV/30MonoS3.wav,1,1,3,11,,,,,0,0,0,10,0,1,1,5,,,,,,,,,1,1.1685461680026492,,,111,001,2019_Sep_10_1418,MusicAffectPsychophysiology2019,3.0.5,60.18649978552896,
To what extent did the music make you feel ,ALERT,30MonoWAV/30MonoS3.wav,1,1,3,11,,,,,0,0,0,10,0,2,2,8,,,,,,,,,2,1.8028442049981095,,,111,001,2019_Sep_10_1418,MusicAffectPsychophysiology2019,3.0.5,60.18649978552896,
To what extent did the music make you feel ,HAPPY,30MonoWAV/30MonoS3.wav,1,1,3,11,,,,,0,0,0,10,0,3,3,6,,,,,,,,,1,1.416747758994461,,,111,001,2019_Sep_10_1418,MusicAffectPsychophysiology2019,3.0.5,60.18649978552896,
To what extent did the music make you feel ,SCARED,30MonoWAV/30MonoS3.wav,1,1,3,11,,,,,0,0,0,10,0,4,4,11,,,,,,,,,2,2.468083615996875,,,111,001,2019_Sep_10_1418,MusicAffectPsychophysiology2019,3.0.5,60.18649978552896,
To what extent did the music make you feel ,ANGRY,30MonoWAV/30MonoS3.wav,1,1,3,11,,,,,0,0,0,10,0,5,5,2,,,,,,,,,1,2.3526440269997693,,,111,001,2019_Sep_10_1418,MusicAffectPsychophysiology2019,3.0.5,60.18649978552896,
To what extent did the music make you feel ,TENDER,30MonoWAV/30MonoS3.wav,1,1,3,11,,,,,0,0,0,10,0,6,6,10,,,,,,,,,1,0.9842137810046552,,,111,001,2019_Sep_10_1418,MusicAffectPsychophysiology2019,3.0.5,60.18649978552896,
To what extent did the music make you feel ,ACTIVE,30MonoWAV/30MonoS3.wav,1,1,3,11,,,,,0,0,0,10,0,7,7,9,,,,,,,,,1,1.852057516000059,,,111,001,2019_Sep_10_1418,MusicAffectPsychophysiology2019,3.0.5,60.18649978552896,
To what extent did the music make you feel ,FRUSTRATED,30MonoWAV/30MonoS3.wav,1,1,3,11,,,,,0,0,0,10,0,8,8,3,,,,,,,,,1,1.0876058069989085,,,111,001,2019_Sep_10_1418,MusicAffectPsychophysiology2019,3.0.5,60.18649978552896,
To what extent did the music make you feel ,ASHAMED,30MonoWAV/30MonoS3.wav,1,1,3,11,,,,,0,0,0,10,0,9,9,4,,,,,,,,,1,1.6026549040034297,,,111,001,2019_Sep_10_1418,MusicAffectPsychophysiology2019,3.0.5,60.18649978552896,
To what extent did the music make you feel ,ANXIOUS ,30MonoWAV/30MonoS3.wav,1,1,3,11,,,,,0,0,0,10,0,10,10,1,,,,,,,,,2,3.8346476769947913,,,111,001,2019_Sep_10_1418,MusicAffectPsychophysiology2019,3.0.5,60.18649978552896,
To what extent did the music make you feel ,SAD,30MonoWAV/30MonoS3.wav,1,1,3,11,,,,,0,0,0,10,0,11,11,0,,,,,,,,,2,1.3538250060009887,,,111,001,2019_Sep_10_1418,MusicAffectPsychophysiology2019,3.0.5,60.18649978552896,
,,30MonoWAV/30MonoS3.wav,1,1,3,11,,,,,0,0,0,10,,,,,,,,,,,,,,,,,111,001,2019_Sep_10_1418,MusicAffectPsychophysiology2019,3.0.5,60.18649978552896,
To what extent did the music make you feel ,ANXIOUS ,30MonoWAV/30MonoT1.wav,2,1,4,13,,,,,0,1,1,12,0,0,0,1,,,1,5.801957862000563,2,1.8684637990008923,1,2.2353222999954596,1,1.6692349079967244,,,111,001,2019_Sep_10_1418,MusicAffectPsychophysiology2019,3.0.5,60.18649978552896,
To what extent did the music make you feel ,ALERT,30MonoWAV/30MonoT1.wav,2,1,4,13,,,,,0,1,1,12,0,1,1,8,,,,,,,,,1,1.3998939480006811,,,111,001,2019_Sep_10_1418,MusicAffectPsychophysiology2019,3.0.5,60.18649978552896,
To what extent did the music make you feel ,TENDER,30MonoWAV/30MonoT1.wav,2,1,4,13,,,,,0,1,1,12,0,2,2,10,,,,,,,,,2,1.3696959939989028,,,111,001,2019_Sep_10_1418,MusicAffectPsychophysiology2019,3.0.5,60.18649978552896,
To what extent did the music make you feel ,EXCITED,30MonoWAV/30MonoT1.wav,2,1,4,13,,,,,0,1,1,12,0,3,3,7,,,,,,,,,1,1.1176964740006952,,,111,001,2019_Sep_10_1418,MusicAffectPsychophysiology2019,3.0.5,60.18649978552896,
To what extent did the music make you feel ,GUILTY,30MonoWAV/30MonoT1.wav,2,1,4,13,,,,,0,1,1,12,0,4,4,5,,,,,,,,,1,1.0692567419973784,,,111,001,2019_Sep_10_1418,MusicAffectPsychophysiology2019,3.0.5,60.18649978552896,
To what extent did the music make you feel ,ACTIVE,30MonoWAV/30MonoT1.wav,2,1,4,13,,,,,0,1,1,12,0,5,5,9,,,,,,,,,1,1.3013039729994489,,,111,001,2019_Sep_10_1418,MusicAffectPsychophysiology2019,3.0.5,60.18649978552896,
To what extent did the music make you feel ,ASHAMED,30MonoWAV/30MonoT1.wav,2,1,4,13,,,,,0,1,1,12,0,6,6,4,,,,,,,,,1,1.1193678909985465,,,111,001,2019_Sep_10_1418,MusicAffectPsychophysiology2019,3.0.5,60.18649978552896,
To what extent did the music make you feel ,SCARED,30MonoWAV/30MonoT1.wav,2,1,4,13,,,,,0,1,1,12,0,7,7,11,,,,,,,,,1,0.8854814199949033,,,111,001,2019_Sep_10_1418,MusicAffectPsychophysiology2019,3.0.5,60.18649978552896,
To what extent did the music make you feel ,HAPPY,30MonoWAV/30MonoT1.wav,2,1,4,13,,,,,0,1,1,12,0,8,8,6,,,,,,,,,1,1.569419810999534,,,111,001,2019_Sep_10_1418,MusicAffectPsychophysiology2019,3.0.5,60.18649978552896,
To what extent did the music make you feel ,SAD,30MonoWAV/30MonoT1.wav,2,1,4,13,,,,,0,1,1,12,0,9,9,0,,,,,,,,,2,1.4028054740047082,,,111,001,2019_Sep_10_1418,MusicAffectPsychophysiology2019,3.0.5,60.18649978552896,
To what extent did the music make you feel ,ANGRY,30MonoWAV/30MonoT1.wav,2,1,4,13,,,,,0,1,1,12,0,10,10,2,,,,,,,,,1,1.083714634005446,,,111,001,2019_Sep_10_1418,MusicAffectPsychophysiology2019,3.0.5,60.18649978552896,
To what extent did the music make you feel ,FRUSTRATED,30MonoWAV/30MonoT1.wav,2,1,4,13,,,,,0,1,1,12,0,11,11,3,,,,,,,,,2,2.802073731996643,,,111,001,2019_Sep_10_1418,MusicAffectPsychophysiology2019,3.0.5,60.18649978552896,
,,30MonoWAV/30MonoT1.wav,2,1,4,13,,,,,0,1,1,12,,,,,,,,,,,,,,,,,111,001,2019_Sep_10_1418,MusicAffectPsychophysiology2019,3.0.5,60.18649978552896,
To what extent did the music make you feel ,EXCITED,30MonoWAV/30MonoT2.wav,2,1,4,14,,,,,0,2,2,13,0,0,0,7,,,2,2.5524473690020386,1,2.5855185910040746,1,3.1366945469999337,1,1.428112183995836,,,111,001,2019_Sep_10_1418,MusicAffectPsychophysiology2019,3.0.5,60.18649978552896,
To what extent did the music make you feel ,SAD,30MonoWAV/30MonoT2.wav,2,1,4,14,,,,,0,2,2,13,0,1,1,0,,,,,,,,,3,1.6528316990006715,,,111,001,2019_Sep_10_1418,MusicAffectPsychophysiology2019,3.0.5,60.18649978552896,
To what extent did the music make you feel ,SCARED,30MonoWAV/30MonoT2.wav,2,1,4,14,,,,,0,2,2,13,0,2,2,11,,,,,,,,,1,1.1862636980004027,,,111,001,2019_Sep_10_1418,MusicAffectPsychophysiology2019,3.0.5,60.18649978552896,
To what extent did the music make you feel ,ALERT,30MonoWAV/30MonoT2.wav,2,1,4,14,,,,,0,2,2,13,0,3,3,8,,,,,,,,,1,1.067148232999898,,,111,001,2019_Sep_10_1418,MusicAffectPsychophysiology2019,3.0.5,60.18649978552896,
To what extent did the music make you feel ,ANXIOUS ,30MonoWAV/30MonoT2.wav,2,1,4,14,,,,,0,2,2,13,0,4,4,1,,,,,,,,,1,1.2356126759987092,,,111,001,2019_Sep_10_1418,MusicAffectPsychophysiology2019,3.0.5,60.18649978552896,
To what extent did the music make you feel ,HAPPY,30MonoWAV/30MonoT2.wav,2,1,4,14,,,,,0,2,2,13,0,5,5,6,,,,,,,,,1,1.7508782900040387,,,111,001,2019_Sep_10_1418,MusicAffectPsychophysiology2019,3.0.5,60.18649978552896,
To what extent did the music make you feel ,ANGRY,30MonoWAV/30MonoT2.wav,2,1,4,14,,,,,0,2,2,13,0,6,6,2,,,,,,,,,1,1.2707840369985206,,,111,001,2019_Sep_10_1418,MusicAffectPsychophysiology2019,3.0.5,60.18649978552896,
To what extent did the music make you feel ,TENDER,30MonoWAV/30MonoT2.wav,2,1,4,14,,,,,0,2,2,13,0,7,7,10,,,,,,,,,2,2.2029411159965093,,,111,001,2019_Sep_10_1418,MusicAffectPsychophysiology2019,3.0.5,60.18649978552896,
To what extent did the music make you feel ,ACTIVE,30MonoWAV/30MonoT2.wav,2,1,4,14,,,,,0,2,2,13,0,8,8,9,,,,,,,,,1,1.5713932270009536,,,111,001,2019_Sep_10_1418,MusicAffectPsychophysiology2019,3.0.5,60.18649978552896,
To what extent did the music make you feel ,ASHAMED,30MonoWAV/30MonoT2.wav,2,1,4,14,,,,,0,2,2,13,0,9,9,4,,,,,,,,,1,2.935377254994819,,,111,001,2019_Sep_10_1418,MusicAffectPsychophysiology2019,3.0.5,60.18649978552896,
To what extent did the music make you feel ,GUILTY,30MonoWAV/30MonoT2.wav,2,1,4,14,,,,,0,2,2,13,0,10,10,5,,,,,,,,,1,1.3685773089964641,,,111,001,2019_Sep_10_1418,MusicAffectPsychophysiology2019,3.0.5,60.18649978552896,
To what extent did the music make you feel ,FRUSTRATED,30MonoWAV/30MonoT2.wav,2,1,4,14,,,,,0,2,2,13,0,11,11,3,,,,,,,,,3,2.636913556998479,,,111,001,2019_Sep_10_1418,MusicAffectPsychophysiology2019,3.0.5,60.18649978552896,
,,30MonoWAV/30MonoT2.wav,2,1,4,14,,,,,0,2,2,13,,,,,,,,,,,,,,,,,111,001,2019_Sep_10_1418,MusicAffectPsychophysiology2019,3.0.5,60.18649978552896,
To what extent did the music make you feel ,SAD,30MonoWAV/30MonoF1.wav,1,2,2,1,,,,,0,3,3,0,0,0,0,0,,,3,2.719815609998477,2,2.0689486940027564,2,2.4494829989998834,1,1.951205220000702,,,111,001,2019_Sep_10_1418,MusicAffectPsychophysiology2019,3.0.5,60.18649978552896,
To what extent did the music make you feel ,TENDER,30MonoWAV/30MonoF1.wav,1,2,2,1,,,,,0,3,3,0,0,1,1,10,,,,,,,,,1,0.9691709329999867,,,111,001,2019_Sep_10_1418,MusicAffectPsychophysiology2019,3.0.5,60.18649978552896,
To what extent did the music make you feel ,ASHAMED,30MonoWAV/30MonoF1.wav,1,2,2,1,,,,,0,3,3,0,0,2,2,4,,,,,,,,,1,0.752580129999842,,,111,001,2019_Sep_10_1418,MusicAffectPsychophysiology2019,3.0.5,60.18649978552896,
To what extent did the music make you feel ,HAPPY,30MonoWAV/30MonoF1.wav,1,2,2,1,,,,,0,3,3,0,0,3,3,6,,,,,,,,,1,2.2017112409957917,,,111,001,2019_Sep_10_1418,MusicAffectPsychophysiology2019,3.0.5,60.18649978552896,
To what extent did the music make you feel ,FRUSTRATED,30MonoWAV/30MonoF1.wav,1,2,2,1,,,,,0,3,3,0,0,4,4,3,,,,,,,,,1,1.3869364100028179,,,111,001,2019_Sep_10_1418,MusicAffectPsychophysiology2019,3.0.5,60.18649978552896,
To what extent did the music make you feel ,ACTIVE,30MonoWAV/30MonoF1.wav,1,2,2,1,,,,,0,3,3,0,0,5,5,9,,,,,,,,,3,2.8514869480059133,,,111,001,2019_Sep_10_1418,MusicAffectPsychophysiology2019,3.0.5,60.18649978552896,
To what extent did the music make you feel ,SCARED,30MonoWAV/30MonoF1.wav,1,2,2,1,,,,,0,3,3,0,0,6,6,11,,,,,,,,,1,1.5194962520035915,,,111,001,2019_Sep_10_1418,MusicAffectPsychophysiology2019,3.0.5,60.18649978552896,
To what extent did the music make you feel ,GUILTY,30MonoWAV/30MonoF1.wav,1,2,2,1,,,,,0,3,3,0,0,7,7,5,,,,,,,,,1,0.9017510810008389,,,111,001,2019_Sep_10_1418,MusicAffectPsychophysiology2019,3.0.5,60.18649978552896,
To what extent did the music make you feel ,ALERT,30MonoWAV/30MonoF1.wav,1,2,2,1,,,,,0,3,3,0,0,8,8,8,,,,,,,,,3,1.7671232360007707,,,111,001,2019_Sep_10_1418,MusicAffectPsychophysiology2019,3.0.5,60.18649978552896,
To what extent did the music make you feel ,EXCITED,30MonoWAV/30MonoF1.wav,1,2,2,1,,,,,0,3,3,0,0,9,9,7,,,,,,,,,1,2.8691453990031732,,,111,001,2019_Sep_10_1418,MusicAffectPsychophysiology2019,3.0.5,60.18649978552896,
To what extent did the music make you feel ,ANGRY,30MonoWAV/30MonoF1.wav,1,2,2,1,,,,,0,3,3,0,0,10,10,2,,,,,,,,,1,1.167551901002298,,,111,001,2019_Sep_10_1418,MusicAffectPsychophysiology2019,3.0.5,60.18649978552896,
To what extent did the music make you feel ,ANXIOUS ,30MonoWAV/30MonoF1.wav,1,2,2,1,,,,,0,3,3,0,0,11,11,1,,,,,,,,,1,0.7001529190019937,,,111,001,2019_Sep_10_1418,MusicAffectPsychophysiology2019,3.0.5,60.18649978552896,
,,30MonoWAV/30MonoF1.wav,1,2,2,1,,,,,0,3,3,0,,,,,,,,,,,,,,,,,111,001,2019_Sep_10_1418,MusicAffectPsychophysiology2019,3.0.5,60.18649978552896,
To what extent did the music make you feel ,SCARED,30MonoWAV/30MonoH4.wav,2,2,1,8,,,,,0,4,4,7,0,0,0,11,,,4,2.5857610090024536,4,1.719044556004519,3,1.853106836999359,1,1.7879017610030132,,,111,001,2019_Sep_10_1418,MusicAffectPsychophysiology2019,3.0.5,60.18649978552896,
To what extent did the music make you feel ,HAPPY,30MonoWAV/30MonoH4.wav,2,2,1,8,,,,,0,4,4,7,0,1,1,6,,,,,,,,,3,1.102008683999884,,,111,001,2019_Sep_10_1418,MusicAffectPsychophysiology2019,3.0.5,60.18649978552896,
To what extent did the music make you feel ,SAD,30MonoWAV/30MonoH4.wav,2,2,1,8,,,,,0,4,4,7,0,2,2,0,,,,,,,,,1,1.369909965993429,,,111,001,2019_Sep_10_1418,MusicAffectPsychophysiology2019,3.0.5,60.18649978552896,
To what extent did the music make you feel ,ANXIOUS ,30MonoWAV/30MonoH4.wav,2,2,1,8,,,,,0,4,4,7,0,3,3,1,,,,,,,,,1,1.0513258409991977,,,111,001,2019_Sep_10_1418,MusicAffectPsychophysiology2019,3.0.5,60.18649978552896,
To what extent did the music make you feel ,ALERT,30MonoWAV/30MonoH4.wav,2,2,1,8,,,,,0,4,4,7,0,4,4,8,,,,,,,,,2,1.8016854400048032,,,111,001,2019_Sep_10_1418,MusicAffectPsychophysiology2019,3.0.5,60.18649978552896,
To what extent did the music make you feel ,FRUSTRATED,30MonoWAV/30MonoH4.wav,2,2,1,8,,,,,0,4,4,7,0,5,5,3,,,,,,,,,1,2.036020697996719,,,111,001,2019_Sep_10_1418,MusicAffectPsychophysiology2019,3.0.5,60.18649978552896,
To what extent did the music make you feel ,TENDER,30MonoWAV/30MonoH4.wav,2,2,1,8,,,,,0,4,4,7,0,6,6,10,,,,,,,,,3,1.6336999799968908,,,111,001,2019_Sep_10_1418,MusicAffectPsychophysiology2019,3.0.5,60.18649978552896,
To what extent did the music make you feel ,EXCITED,30MonoWAV/30MonoH4.wav,2,2,1,8,,,,,0,4,4,7,0,7,7,7,,,,,,,,,2,1.4178891200062935,,,111,001,2019_Sep_10_1418,MusicAffectPsychophysiology2019,3.0.5,60.18649978552896,
To what extent did the music make you feel ,ANGRY,30MonoWAV/30MonoH4.wav,2,2,1,8,,,,,0,4,4,7,0,8,8,2,,,,,,,,,1,1.3513543880035286,,,111,001,2019_Sep_10_1418,MusicAffectPsychophysiology2019,3.0.5,60.18649978552896,
To what extent did the music make you feel ,GUILTY,30MonoWAV/30MonoH4.wav,2,2,1,8,,,,,0,4,4,7,0,9,9,5,,,,,,,,,1,0.6003351249964908,,,111,001,2019_Sep_10_1418,MusicAffectPsychophysiology2019,3.0.5,60.18649978552896,
To what extent did the music make you feel ,ACTIVE,30MonoWAV/30MonoH4.wav,2,2,1,8,,,,,0,4,4,7,0,10,10,9,,,,,,,,,3,1.7531077969979378,,,111,001,2019_Sep_10_1418,MusicAffectPsychophysiology2019,3.0.5,60.18649978552896,
To what extent did the music make you feel ,ASHAMED,30MonoWAV/30MonoH4.wav,2,2,1,8,,,,,0,4,4,7,0,11,11,4,,,,,,,,,1,0.7868663699991885,,,111,001,2019_Sep_10_1418,MusicAffectPsychophysiology2019,3.0.5,60.18649978552896,
,,30MonoWAV/30MonoH4.wav,2,2,1,8,,,,,0,4,4,7,,,,,,,,,,,,,,,,,111,001,2019_Sep_10_1418,MusicAffectPsychophysiology2019,3.0.5,60.18649978552896,
To what extent did the music make you feel ,ASHAMED,30MonoWAV/30MonoT4.wav,2,1,4,16,,,,,0,5,5,15,0,0,0,4,,,2,3.5020632879968616,3,1.336025556003733,2,1.602759771005367,1,2.235134394999477,,,111,001,2019_Sep_10_1418,MusicAffectPsychophysiology2019,3.0.5,60.18649978552896,
To what extent did the music make you feel ,EXCITED,30MonoWAV/30MonoT4.wav,2,1,4,16,,,,,0,5,5,15,0,1,1,7,,,,,,,,,1,1.4342960819994914,,,111,001,2019_Sep_10_1418,MusicAffectPsychophysiology2019,3.0.5,60.18649978552896,
To what extent did the music make you feel ,SAD,30MonoWAV/30MonoT4.wav,2,1,4,16,,,,,0,5,5,15,0,2,2,0,,,,,,,,,2,2.084886666001694,,,111,001,2019_Sep_10_1418,MusicAffectPsychophysiology2019,3.0.5,60.18649978552896,
To what extent did the music make you feel ,SCARED,30MonoWAV/30MonoT4.wav,2,1,4,16,,,,,0,5,5,15,0,3,3,11,,,,,,,,,1,1.0024701930014999,,,111,001,2019_Sep_10_1418,MusicAffectPsychophysiology2019,3.0.5,60.18649978552896,
To what extent did the music make you feel ,ANXIOUS ,30MonoWAV/30MonoT4.wav,2,1,4,16,,,,,0,5,5,15,0,4,4,1,,,,,,,,,1,1.7856157179994625,,,111,001,2019_Sep_10_1418,MusicAffectPsychophysiology2019,3.0.5,60.18649978552896,
To what extent did the music make you feel ,ANGRY,30MonoWAV/30MonoT4.wav,2,1,4,16,,,,,0,5,5,15,0,5,5,2,,,,,,,,,1,0.8185886099963682,,,111,001,2019_Sep_10_1418,MusicAffectPsychophysiology2019,3.0.5,60.18649978552896,
To what extent did the music make you feel ,ALERT,30MonoWAV/30MonoT4.wav,2,1,4,16,,,,,0,5,5,15,0,6,6,8,,,,,,,,,2,1.5350929480046034,,,111,001,2019_Sep_10_1418,MusicAffectPsychophysiology2019,3.0.5,60.18649978552896,
To what extent did the music make you feel ,HAPPY,30MonoWAV/30MonoT4.wav,2,1,4,16,,,,,0,5,5,15,0,7,7,6,,,,,,,,,2,1.5682140409990097,,,111,001,2019_Sep_10_1418,MusicAffectPsychophysiology2019,3.0.5,60.18649978552896,
To what extent did the music make you feel ,ACTIVE,30MonoWAV/30MonoT4.wav,2,1,4,16,,,,,0,5,5,15,0,8,8,9,,,,,,,,,2,3.252773825006443,,,111,001,2019_Sep_10_1418,MusicAffectPsychophysiology2019,3.0.5,60.18649978552896,
To what extent did the music make you feel ,TENDER,30MonoWAV/30MonoT4.wav,2,1,4,16,,,,,0,5,5,15,0,9,9,10,,,,,,,,,3,1.6841338890008046,,,111,001,2019_Sep_10_1418,MusicAffectPsychophysiology2019,3.0.5,60.18649978552896,
To what extent did the music make you feel ,GUILTY,30MonoWAV/30MonoT4.wav,2,1,4,16,,,,,0,5,5,15,0,10,10,5,,,,,,,,,1,1.0358986040009768,,,111,001,2019_Sep_10_1418,MusicAffectPsychophysiology2019,3.0.5,60.18649978552896,
To what extent did the music make you feel ,FRUSTRATED,30MonoWAV/30MonoT4.wav,2,1,4,16,,,,,0,5,5,15,0,11,11,3,,,,,,,,,1,1.8022531160022481,,,111,001,2019_Sep_10_1418,MusicAffectPsychophysiology2019,3.0.5,60.18649978552896,
,,30MonoWAV/30MonoT4.wav,2,1,4,16,,,,,0,5,5,15,,,,,,,,,,,,,,,,,111,001,2019_Sep_10_1418,MusicAffectPsychophysiology2019,3.0.5,60.18649978552896,
To what extent did the music make you feel ,ASHAMED,30MonoWAV/30MonoH1.wav,2,2,1,5,,,,,0,6,6,4,0,0,0,4,,,3,1.8367832229996566,2,2.0025459329990554,2,1.4183722890011268,1,1.265530149998085,,,111,001,2019_Sep_10_1418,MusicAffectPsychophysiology2019,3.0.5,60.18649978552896,
To what extent did the music make you feel ,SCARED,30MonoWAV/30MonoH1.wav,2,2,1,5,,,,,0,6,6,4,0,1,1,11,,,,,,,,,1,0.8017813370024669,,,111,001,2019_Sep_10_1418,MusicAffectPsychophysiology2019,3.0.5,60.18649978552896,
To what extent did the music make you feel ,ANGRY,30MonoWAV/30MonoH1.wav,2,2,1,5,,,,,0,6,6,4,0,2,2,2,,,,,,,,,1,0.8350041800003964,,,111,001,2019_Sep_10_1418,MusicAffectPsychophysiology2019,3.0.5,60.18649978552896,
To what extent did the music make you feel ,HAPPY,30MonoWAV/30MonoH1.wav,2,2,1,5,,,,,0,6,6,4,0,3,3,6,,,,,,,,,2,1.28639319800277,,,111,001,2019_Sep_10_1418,MusicAffectPsychophysiology2019,3.0.5,60.18649978552896,
To what extent did the music make you feel ,EXCITED,30MonoWAV/30MonoH1.wav,2,2,1,5,,,,,0,6,6,4,0,4,4,7,,,,,,,,,1,1.6337816740051494,,,111,001,2019_Sep_10_1418,MusicAffectPsychophysiology2019,3.0.5,60.18649978552896,
To what extent did the music make you feel ,TENDER,30MonoWAV/30MonoH1.wav,2,2,1,5,,,,,0,6,6,4,0,5,5,10,,,,,,,,,2,1.8349790049978765,,,111,001,2019_Sep_10_1418,MusicAffectPsychophysiology2019,3.0.5,60.18649978552896,
To what extent did the music make you feel ,ACTIVE,30MonoWAV/30MonoH1.wav,2,2,1,5,,,,,0,6,6,4,0,6,6,9,,,,,,,,,3,1.285430711999652,,,111,001,2019_Sep_10_1418,MusicAffectPsychophysiology2019,3.0.5,60.18649978552896,
To what extent did the music make you feel ,FRUSTRATED,30MonoWAV/30MonoH1.wav,2,2,1,5,,,,,0,6,6,4,0,7,7,3,,,,,,,,,1,1.1035572279943153,,,111,001,2019_Sep_10_1418,MusicAffectPsychophysiology2019,3.0.5,60.18649978552896,
To what extent did the music make you feel ,ALERT,30MonoWAV/30MonoH1.wav,2,2,1,5,,,,,0,6,6,4,0,8,8,8,,,,,,,,,2,1.4020373259991175,,,111,001,2019_Sep_10_1418,MusicAffectPsychophysiology2019,3.0.5,60.18649978552896,
To what extent did the music make you feel ,GUILTY,30MonoWAV/30MonoH1.wav,2,2,1,5,,,,,0,6,6,4,0,9,9,5,,,,,,,,,1,1.3365465099996072,,,111,001,2019_Sep_10_1418,MusicAffectPsychophysiology2019,3.0.5,60.18649978552896,
To what extent did the music make you feel ,SAD,30MonoWAV/30MonoH1.wav,2,2,1,5,,,,,0,6,6,4,0,10,10,0,,,,,,,,,1,0.8005477089973283,,,111,001,2019_Sep_10_1418,MusicAffectPsychophysiology2019,3.0.5,60.18649978552896,
To what extent did the music make you feel ,ANXIOUS ,30MonoWAV/30MonoH1.wav,2,2,1,5,,,,,0,6,6,4,0,11,11,1,,,,,,,,,1,0.6358853190031368,,,111,001,2019_Sep_10_1418,MusicAffectPsychophysiology2019,3.0.5,60.18649978552896,
,,30MonoWAV/30MonoH1.wav,2,2,1,5,,,,,0,6,6,4,,,,,,,,,,,,,,,,,111,001,2019_Sep_10_1418,MusicAffectPsychophysiology2019,3.0.5,60.18649978552896,
To what extent did the music make you feel ,ACTIVE,30MonoWAV/30MonoS2.wav,1,1,3,10,,,,,0,7,7,9,0,0,0,9,,,1,4.319252860994311,1,2.501737814003718,2,4.085673888999736,1,1.809209965998889,,,111,001,2019_Sep_10_1418,MusicAffectPsychophysiology2019,3.0.5,60.18649978552896,
To what extent did the music make you feel ,HAPPY,30MonoWAV/30MonoS2.wav,1,1,3,10,,,,,0,7,7,9,0,1,1,6,,,,,,,,,1,1.7185166830022354,,,111,001,2019_Sep_10_1418,MusicAffectPsychophysiology2019,3.0.5,60.18649978552896,
To what extent did the music make you feel ,ANXIOUS ,30MonoWAV/30MonoS2.wav,1,1,3,10,,,,,0,7,7,9,0,2,2,1,,,,,,,,,1,1.1697360090038273,,,111,001,2019_Sep_10_1418,MusicAffectPsychophysiology2019,3.0.5,60.18649978552896,
To what extent did the music make you feel ,TENDER,30MonoWAV/30MonoS2.wav,1,1,3,10,,,,,0,7,7,9,0,3,3,10,,,,,,,,,1,2.1525417489974643,,,111,001,2019_Sep_10_1418,MusicAffectPsychophysiology2019,3.0.5,60.18649978552896,
To what extent did the music make you feel ,SAD,30MonoWAV/30MonoS2.wav,1,1,3,10,,,,,0,7,7,9,0,4,4,0,,,,,,,,,3,1.4194156040030066,,,111,001,2019_Sep_10_1418,MusicAffectPsychophysiology2019,3.0.5,60.18649978552896,
To what extent did the music make you feel ,ANGRY,30MonoWAV/30MonoS2.wav,1,1,3,10,,,,,0,7,7,9,0,5,5,2,,,,,,,,,1,1.2854610280046472,,,111,001,2019_Sep_10_1418,MusicAffectPsychophysiology2019,3.0.5,60.18649978552896,
To what extent did the music make you feel ,EXCITED,30MonoWAV/30MonoS2.wav,1,1,3,10,,,,,0,7,7,9,0,6,6,7,,,,,,,,,1,0.7188464819992078,,,111,001,2019_Sep_10_1418,MusicAffectPsychophysiology2019,3.0.5,60.18649978552896,
To what extent did the music make you feel ,GUILTY,30MonoWAV/30MonoS2.wav,1,1,3,10,,,,,0,7,7,9,0,7,7,5,,,,,,,,,1,0.8683233160045347,,,111,001,2019_Sep_10_1418,MusicAffectPsychophysiology2019,3.0.5,60.18649978552896,
To what extent did the music make you feel ,FRUSTRATED,30MonoWAV/30MonoS2.wav,1,1,3,10,,,,,0,7,7,9,0,8,8,3,,,,,,,,,1,2.1574252790014725,,,111,001,2019_Sep_10_1418,MusicAffectPsychophysiology2019,3.0.5,60.18649978552896,
To what extent did the music make you feel ,ALERT,30MonoWAV/30MonoS2.wav,1,1,3,10,,,,,0,7,7,9,0,9,9,8,,,,,,,,,1,1.3186088419970474,,,111,001,2019_Sep_10_1418,MusicAffectPsychophysiology2019,3.0.5,60.18649978552896,
To what extent did the music make you feel ,ASHAMED,30MonoWAV/30MonoS2.wav,1,1,3,10,,,,,0,7,7,9,0,10,10,4,,,,,,,,,1,1.486067534002359,,,111,001,2019_Sep_10_1418,MusicAffectPsychophysiology2019,3.0.5,60.18649978552896,
To what extent did the music make you feel ,SCARED,30MonoWAV/30MonoS2.wav,1,1,3,10,,,,,0,7,7,9,0,11,11,11,,,,,,,,,1,0.7538084529951448,,,111,001,2019_Sep_10_1418,MusicAffectPsychophysiology2019,3.0.5,60.18649978552896,
,,30MonoWAV/30MonoS2.wav,1,1,3,10,,,,,0,7,7,9,,,,,,,,,,,,,,,,,111,001,2019_Sep_10_1418,MusicAffectPsychophysiology2019,3.0.5,60.18649978552896,
To what extent did the music make you feel ,GUILTY,30MonoWAV/30MonoT3.wav,2,1,4,15,,,,,0,8,8,14,0,0,0,5,,,1,2.1357638870031224,1,1.9358230369980447,1,2.084006108001631,1,1.7029449390029185,,,111,001,2019_Sep_10_1418,MusicAffectPsychophysiology2019,3.0.5,60.18649978552896,
To what extent did the music make you feel ,ASHAMED,30MonoWAV/30MonoT3.wav,2,1,4,15,,,,,0,8,8,14,0,1,1,4,,,,,,,,,1,0.8024896360002458,,,111,001,2019_Sep_10_1418,MusicAffectPsychophysiology2019,3.0.5,60.18649978552896,
To what extent did the music make you feel ,EXCITED,30MonoWAV/30MonoT3.wav,2,1,4,15,,,,,0,8,8,14,0,2,2,7,,,,,,,,,1,1.1690561380019062,,,111,001,2019_Sep_10_1418,MusicAffectPsychophysiology2019,3.0.5,60.18649978552896,
To what extent did the music make you feel ,SCARED,30MonoWAV/30MonoT3.wav,2,1,4,15,,,,,0,8,8,14,0,3,3,11,,,,,,,,,1,1.050958340994839,,,111,001,2019_Sep_10_1418,MusicAffectPsychophysiology2019,3.0.5,60.18649978552896,
To what extent did the music make you feel ,HAPPY,30MonoWAV/30MonoT3.wav,2,1,4,15,,,,,0,8,8,14,0,4,4,6,,,,,,,,,1,1.7356376449970412,,,111,001,2019_Sep_10_1418,MusicAffectPsychophysiology2019,3.0.5,60.18649978552896,
To what extent did the music make you feel ,SAD,30MonoWAV/30MonoT3.wav,2,1,4,15,,,,,0,8,8,14,0,5,5,0,,,,,,,,,2,1.3513789849966997,,,111,001,2019_Sep_10_1418,MusicAffectPsychophysiology2019,3.0.5,60.18649978552896,
To what extent did the music make you feel ,FRUSTRATED,30MonoWAV/30MonoT3.wav,2,1,4,15,,,,,0,8,8,14,0,6,6,3,,,,,,,,,3,1.5686999390018173,,,111,001,2019_Sep_10_1418,MusicAffectPsychophysiology2019,3.0.5,60.18649978552896,
To what extent did the music make you feel ,ANGRY,30MonoWAV/30MonoT3.wav,2,1,4,15,,,,,0,8,8,14,0,7,7,2,,,,,,,,,1,1.1682604889938375,,,111,001,2019_Sep_10_1418,MusicAffectPsychophysiology2019,3.0.5,60.18649978552896,
To what extent did the music make you feel ,TENDER,30MonoWAV/30MonoT3.wav,2,1,4,15,,,,,0,8,8,14,0,8,8,10,,,,,,,,,1,2.37032929599809,,,111,001,2019_Sep_10_1418,MusicAffectPsychophysiology2019,3.0.5,60.18649978552896,
To what extent did the music make you feel ,ALERT,30MonoWAV/30MonoT3.wav,2,1,4,15,,,,,0,8,8,14,0,9,9,8,,,,,,,,,1,1.1675081919966033,,,111,001,2019_Sep_10_1418,MusicAffectPsychophysiology2019,3.0.5,60.18649978552896,
To what extent did the music make you feel ,ACTIVE,30MonoWAV/30MonoT3.wav,2,1,4,15,,,,,0,8,8,14,0,10,10,9,,,,,,,,,1,3.5031356349936686,,,111,001,2019_Sep_10_1418,MusicAffectPsychophysiology2019,3.0.5,60.18649978552896,
To what extent did the music make you feel ,ANXIOUS ,30MonoWAV/30MonoT3.wav,2,1,4,15,,,,,0,8,8,14,0,11,11,1,,,,,,,,,3,5.08433941599651,,,111,001,2019_Sep_10_1418,MusicAffectPsychophysiology2019,3.0.5,60.18649978552896,
,,30MonoWAV/30MonoT3.wav,2,1,4,15,,,,,0,8,8,14,,,,,,,,,,,,,,,,,111,001,2019_Sep_10_1418,MusicAffectPsychophysiology2019,3.0.5,60.18649978552896,
To what extent did the music make you feel ,TENDER,30MonoWAV/30MonoF2.wav,1,2,2,2,,,,,0,9,9,1,0,0,0,10,,,3,5.368433214003744,1,1.5018590050021885,1,1.7187524540058803,1,1.2245692310025333,,,111,001,2019_Sep_10_1418,MusicAffectPsychophysiology2019,3.0.5,60.18649978552896,
To what extent did the music make you feel ,GUILTY,30MonoWAV/30MonoF2.wav,1,2,2,2,,,,,0,9,9,1,0,1,1,5,,,,,,,,,1,1.0864323290006723,,,111,001,2019_Sep_10_1418,MusicAffectPsychophysiology2019,3.0.5,60.18649978552896,
To what extent did the music make you feel ,ANXIOUS ,30MonoWAV/30MonoF2.wav,1,2,2,2,,,,,0,9,9,1,0,2,2,1,,,,,,,,,3,1.4837867699970957,,,111,001,2019_Sep_10_1418,MusicAffectPsychophysiology2019,3.0.5,60.18649978552896,
To what extent did the music make you feel ,FRUSTRATED,30MonoWAV/30MonoF2.wav,1,2,2,2,,,,,0,9,9,1,0,3,3,3,,,,,,,,,1,1.1691092180044507,,,111,001,2019_Sep_10_1418,MusicAffectPsychophysiology2019,3.0.5,60.18649978552896,
To what extent did the music make you feel ,ANGRY,30MonoWAV/30MonoF2.wav,1,2,2,2,,,,,0,9,9,1,0,4,4,2,,,,,,,,,1,1.1370917250023922,,,111,001,2019_Sep_10_1418,MusicAffectPsychophysiology2019,3.0.5,60.18649978552896,
To what extent did the music make you feel ,SCARED,30MonoWAV/30MonoF2.wav,1,2,2,2,,,,,0,9,9,1,0,5,5,11,,,,,,,,,3,1.1865409660022124,,,111,001,2019_Sep_10_1418,MusicAffectPsychophysiology2019,3.0.5,60.18649978552896,
To what extent did the music make you feel ,EXCITED,30MonoWAV/30MonoF2.wav,1,2,2,2,,,,,0,9,9,1,0,6,6,7,,,,,,,,,1,1.1201282360052573,,,111,001,2019_Sep_10_1418,MusicAffectPsychophysiology2019,3.0.5,60.18649978552896,
To what extent did the music make you feel ,HAPPY,30MonoWAV/30MonoF2.wav,1,2,2,2,,,,,0,9,9,1,0,7,7,6,,,,,,,,,1,1.10268275099952,,,111,001,2019_Sep_10_1418,MusicAffectPsychophysiology2019,3.0.5,60.18649978552896,
To what extent did the music make you feel ,SAD,30MonoWAV/30MonoF2.wav,1,2,2,2,,,,,0,9,9,1,0,8,8,0,,,,,,,,,1,1.7357112370009418,,,111,001,2019_Sep_10_1418,MusicAffectPsychophysiology2019,3.0.5,60.18649978552896,
To what extent did the music make you feel ,ASHAMED,30MonoWAV/30MonoF2.wav,1,2,2,2,,,,,0,9,9,1,0,9,9,4,,,,,,,,,1,1.8030092690023594,,,111,001,2019_Sep_10_1418,MusicAffectPsychophysiology2019,3.0.5,60.18649978552896,
To what extent did the music make you feel ,ACTIVE,30MonoWAV/30MonoF2.wav,1,2,2,2,,,,,0,9,9,1,0,10,10,9,,,,,,,,,2,1.3196420500025852,,,111,001,2019_Sep_10_1418,MusicAffectPsychophysiology2019,3.0.5,60.18649978552896,
To what extent did the music make you feel ,ALERT,30MonoWAV/30MonoF2.wav,1,2,2,2,,,,,0,9,9,1,0,11,11,8,,,,,,,,,3,2.3032381989978603,,,111,001,2019_Sep_10_1418,MusicAffectPsychophysiology2019,3.0.5,60.18649978552896,
,,30MonoWAV/30MonoF2.wav,1,2,2,2,,,,,0,9,9,1,,,,,,,,,,,,,,,,,111,001,2019_Sep_10_1418,MusicAffectPsychophysiology2019,3.0.5,60.18649978552896,
To what extent did the music make you feel ,SCARED,30MonoWAV/30MonoS4.wav,1,1,3,12,,,,,0,10,10,11,0,0,0,11,,,1,2.0529910629993537,1,2.750777827001002,2,1.4697418220021063,1,2.0171259269991424,,,111,001,2019_Sep_10_1418,MusicAffectPsychophysiology2019,3.0.5,60.18649978552896,
To what extent did the music make you feel ,ACTIVE,30MonoWAV/30MonoS4.wav,1,1,3,12,,,,,0,10,10,11,0,1,1,9,,,,,,,,,1,1.185951744999329,,,111,001,2019_Sep_10_1418,MusicAffectPsychophysiology2019,3.0.5,60.18649978552896,
To what extent did the music make you feel ,FRUSTRATED,30MonoWAV/30MonoS4.wav,1,1,3,12,,,,,0,10,10,11,0,2,2,3,,,,,,,,,1,0.8534501609974541,,,111,001,2019_Sep_10_1418,MusicAffectPsychophysiology2019,3.0.5,60.18649978552896,
To what extent did the music make you feel ,ALERT,30MonoWAV/30MonoS4.wav,1,1,3,12,,,,,0,10,10,11,0,3,3,8,,,,,,,,,1,1.4693630920010037,,,111,001,2019_Sep_10_1418,MusicAffectPsychophysiology2019,3.0.5,60.18649978552896,
To what extent did the music make you feel ,GUILTY,30MonoWAV/30MonoS4.wav,1,1,3,12,,,,,0,10,10,11,0,4,4,5,,,,,,,,,1,0.8333959410010721,,,111,001,2019_Sep_10_1418,MusicAffectPsychophysiology2019,3.0.5,60.18649978552896,
To what extent did the music make you feel ,EXCITED,30MonoWAV/30MonoS4.wav,1,1,3,12,,,,,0,10,10,11,0,5,5,7,,,,,,,,,1,1.0857717999970191,,,111,001,2019_Sep_10_1418,MusicAffectPsychophysiology2019,3.0.5,60.18649978552896,
To what extent did the music make you feel ,SAD,30MonoWAV/30MonoS4.wav,1,1,3,12,,,,,0,10,10,11,0,6,6,0,,,,,,,,,4,1.7199146400016616,,,111,001,2019_Sep_10_1418,MusicAffectPsychophysiology2019,3.0.5,60.18649978552896,
To what extent did the music make you feel ,ASHAMED,30MonoWAV/30MonoS4.wav,1,1,3,12,,,,,0,10,10,11,0,7,7,4,,,,,,,,,1,1.6189466469950275,,,111,001,2019_Sep_10_1418,MusicAffectPsychophysiology2019,3.0.5,60.18649978552896,
To what extent did the music make you feel ,ANGRY,30MonoWAV/30MonoS4.wav,1,1,3,12,,,,,0,10,10,11,0,8,8,2,,,,,,,,,1,0.7361171230004402,,,111,001,2019_Sep_10_1418,MusicAffectPsychophysiology2019,3.0.5,60.18649978552896,
To what extent did the music make you feel ,TENDER,30MonoWAV/30MonoS4.wav,1,1,3,12,,,,,0,10,10,11,0,9,9,10,,,,,,,,,2,1.9528570490001584,,,111,001,2019_Sep_10_1418,MusicAffectPsychophysiology2019,3.0.5,60.18649978552896,
To what extent did the music make you feel ,HAPPY,30MonoWAV/30MonoS4.wav,1,1,3,12,,,,,0,10,10,11,0,10,10,6,,,,,,,,,1,1.00248062099854,,,111,001,2019_Sep_10_1418,MusicAffectPsychophysiology2019,3.0.5,60.18649978552896,
To what extent did the music make you feel ,ANXIOUS ,30MonoWAV/30MonoS4.wav,1,1,3,12,,,,,0,10,10,11,0,11,11,1,,,,,,,,,1,1.1685918810035218,,,111,001,2019_Sep_10_1418,MusicAffectPsychophysiology2019,3.0.5,60.18649978552896,
,,30MonoWAV/30MonoS4.wav,1,1,3,12,,,,,0,10,10,11,,,,,,,,,,,,,,,,,111,001,2019_Sep_10_1418,MusicAffectPsychophysiology2019,3.0.5,60.18649978552896,
To what extent did the music make you feel ,SAD,30MonoWAV/30MonoH2.wav,2,2,1,6,,,,,0,11,11,5,0,0,0,0,,,3,4.134659896000812,2,1.634535067001707,2,2.202208219001477,1,1.629739354000776,,,111,001,2019_Sep_10_1418,MusicAffectPsychophysiology2019,3.0.5,60.18649978552896,
To what extent did the music make you feel ,TENDER,30MonoWAV/30MonoH2.wav,2,2,1,6,,,,,0,11,11,5,0,1,1,10,,,,,,,,,2,1.1511263600041275,,,111,001,2019_Sep_10_1418,MusicAffectPsychophysiology2019,3.0.5,60.18649978552896,
To what extent did the music make you feel ,EXCITED,30MonoWAV/30MonoH2.wav,2,2,1,6,,,,,0,11,11,5,0,2,2,7,,,,,,,,,2,2.117480372005957,,,111,001,2019_Sep_10_1418,MusicAffectPsychophysiology2019,3.0.5,60.18649978552896,
To what extent did the music make you feel ,HAPPY,30MonoWAV/30MonoH2.wav,2,2,1,6,,,,,0,11,11,5,0,3,3,6,,,,,,,,,2,2.166911888998584,,,111,001,2019_Sep_10_1418,MusicAffectPsychophysiology2019,3.0.5,60.18649978552896,
To what extent did the music make you feel ,ASHAMED,30MonoWAV/30MonoH2.wav,2,2,1,6,,,,,0,11,11,5,0,4,4,4,,,,,,,,,1,1.1678484850053792,,,111,001,2019_Sep_10_1418,MusicAffectPsychophysiology2019,3.0.5,60.18649978552896,
To what extent did the music make you feel ,SCARED,30MonoWAV/30MonoH2.wav,2,2,1,6,,,,,0,11,11,5,0,5,5,11,,,,,,,,,1,0.6859486719986307,,,111,001,2019_Sep_10_1418,MusicAffectPsychophysiology2019,3.0.5,60.18649978552896,
To what extent did the music make you feel ,ACTIVE,30MonoWAV/30MonoH2.wav,2,2,1,6,,,,,0,11,11,5,0,6,6,9,,,,,,,,,3,1.0022790579969296,,,111,001,2019_Sep_10_1418,MusicAffectPsychophysiology2019,3.0.5,60.18649978552896,
To what extent did the music make you feel ,FRUSTRATED,30MonoWAV/30MonoH2.wav,2,2,1,6,,,,,0,11,11,5,0,7,7,3,,,,,,,,,1,2.5777603020032984,,,111,001,2019_Sep_10_1418,MusicAffectPsychophysiology2019,3.0.5,60.18649978552896,
To what extent did the music make you feel ,ALERT,30MonoWAV/30MonoH2.wav,2,2,1,6,,,,,0,11,11,5,0,8,8,8,,,,,,,,,2,1.3858132019959157,,,111,001,2019_Sep_10_1418,MusicAffectPsychophysiology2019,3.0.5,60.18649978552896,
To what extent did the music make you feel ,ANGRY,30MonoWAV/30MonoH2.wav,2,2,1,6,,,,,0,11,11,5,0,9,9,2,,,,,,,,,1,0.5854814560007071,,,111,001,2019_Sep_10_1418,MusicAffectPsychophysiology2019,3.0.5,60.18649978552896,
To what extent did the music make you feel ,ANXIOUS ,30MonoWAV/30MonoH2.wav,2,2,1,6,,,,,0,11,11,5,0,10,10,1,,,,,,,,,1,0.9682710569977644,,,111,001,2019_Sep_10_1418,MusicAffectPsychophysiology2019,3.0.5,60.18649978552896,
To what extent did the music make you feel ,GUILTY,30MonoWAV/30MonoH2.wav,2,2,1,6,,,,,0,11,11,5,0,11,11,5,,,,,,,,,1,0.8022994459970505,,,111,001,2019_Sep_10_1418,MusicAffectPsychophysiology2019,3.0.5,60.18649978552896,
,,30MonoWAV/30MonoH2.wav,2,2,1,6,,,,,0,11,11,5,,,,,,,,,,,,,,,,,111,001,2019_Sep_10_1418,MusicAffectPsychophysiology2019,3.0.5,60.18649978552896,
To what extent did the music make you feel ,ANGRY,30MonoWAV/30MonoF4.wav,1,2,2,4,,,,,0,12,12,3,0,0,0,2,,,3,3.053100618002645,1,1.4690696149991709,1,3.6348065199999837,1,2.98883807999664,,,111,001,2019_Sep_10_1418,MusicAffectPsychophysiology2019,3.0.5,60.18649978552896,
To what extent did the music make you feel ,TENDER,30MonoWAV/30MonoF4.wav,1,2,2,4,,,,,0,12,12,3,0,1,1,10,,,,,,,,,1,1.0700650890066754,,,111,001,2019_Sep_10_1418,MusicAffectPsychophysiology2019,3.0.5,60.18649978552896,
To what extent did the music make you feel ,EXCITED,30MonoWAV/30MonoF4.wav,1,2,2,4,,,,,0,12,12,3,0,2,2,7,,,,,,,,,1,0.8863050710060634,,,111,001,2019_Sep_10_1418,MusicAffectPsychophysiology2019,3.0.5,60.18649978552896,
To what extent did the music make you feel ,ASHAMED,30MonoWAV/30MonoF4.wav,1,2,2,4,,,,,0,12,12,3,0,3,3,4,,,,,,,,,1,1.6866563919975306,,,111,001,2019_Sep_10_1418,MusicAffectPsychophysiology2019,3.0.5,60.18649978552896,
To what extent did the music make you feel ,ALERT,30MonoWAV/30MonoF4.wav,1,2,2,4,,,,,0,12,12,3,0,4,4,8,,,,,,,,,2,1.2031313320039771,,,111,001,2019_Sep_10_1418,MusicAffectPsychophysiology2019,3.0.5,60.18649978552896,
To what extent did the music make you feel ,SAD,30MonoWAV/30MonoF4.wav,1,2,2,4,,,,,0,12,12,3,0,5,5,0,,,,,,,,,4,1.3337196389984456,,,111,001,2019_Sep_10_1418,MusicAffectPsychophysiology2019,3.0.5,60.18649978552896,
To what extent did the music make you feel ,FRUSTRATED,30MonoWAV/30MonoF4.wav,1,2,2,4,,,,,0,12,12,3,0,6,6,3,,,,,,,,,1,1.251800045996788,,,111,001,2019_Sep_10_1418,MusicAffectPsychophysiology2019,3.0.5,60.18649978552896,
To what extent did the music make you feel ,ANXIOUS ,30MonoWAV/30MonoF4.wav,1,2,2,4,,,,,0,12,12,3,0,7,7,1,,,,,,,,,3,1.2524658999973326,,,111,001,2019_Sep_10_1418,MusicAffectPsychophysiology2019,3.0.5,60.18649978552896,
To what extent did the music make you feel ,SCARED,30MonoWAV/30MonoF4.wav,1,2,2,4,,,,,0,12,12,3,0,8,8,11,,,,,,,,,2,1.3715044319978915,,,111,001,2019_Sep_10_1418,MusicAffectPsychophysiology2019,3.0.5,60.18649978552896,
To what extent did the music make you feel ,GUILTY,30MonoWAV/30MonoF4.wav,1,2,2,4,,,,,0,12,12,3,0,9,9,5,,,,,,,,,1,2.2037029570055893,,,111,001,2019_Sep_10_1418,MusicAffectPsychophysiology2019,3.0.5,60.18649978552896,
To what extent did the music make you feel ,HAPPY,30MonoWAV/30MonoF4.wav,1,2,2,4,,,,,0,12,12,3,0,10,10,6,,,,,,,,,1,1.11873924399697,,,111,001,2019_Sep_10_1418,MusicAffectPsychophysiology2019,3.0.5,60.18649978552896,
To what extent did the music make you feel ,ACTIVE,30MonoWAV/30MonoF4.wav,1,2,2,4,,,,,0,12,12,3,0,11,11,9,,,,,,,,,2,1.3043488129987963,,,111,001,2019_Sep_10_1418,MusicAffectPsychophysiology2019,3.0.5,60.18649978552896,
,,30MonoWAV/30MonoF4.wav,1,2,2,4,,,,,0,12,12,3,,,,,,,,,,,,,,,,,111,001,2019_Sep_10_1418,MusicAffectPsychophysiology2019,3.0.5,60.18649978552896,
To what extent did the music make you feel ,TENDER,30MonoWAV/30MonoH3.wav,2,2,1,7,,,,,0,13,13,6,0,0,0,10,,,3,9.517264927002543,2,4.069447027002752,1,1.2201730070009944,1,1.869085856997117,,,111,001,2019_Sep_10_1418,MusicAffectPsychophysiology2019,3.0.5,60.18649978552896,
To what extent did the music make you feel ,ANXIOUS ,30MonoWAV/30MonoH3.wav,2,2,1,7,,,,,0,13,13,6,0,1,1,1,,,,,,,,,1,1.1862038530016434,,,111,001,2019_Sep_10_1418,MusicAffectPsychophysiology2019,3.0.5,60.18649978552896,
To what extent did the music make you feel ,GUILTY,30MonoWAV/30MonoH3.wav,2,2,1,7,,,,,0,13,13,6,0,2,2,5,,,,,,,,,1,0.6199547049982357,,,111,001,2019_Sep_10_1418,MusicAffectPsychophysiology2019,3.0.5,60.18649978552896,
To what extent did the music make you feel ,EXCITED,30MonoWAV/30MonoH3.wav,2,2,1,7,,,,,0,13,13,6,0,3,3,7,,,,,,,,,2,1.0528274519965635,,,111,001,2019_Sep_10_1418,MusicAffectPsychophysiology2019,3.0.5,60.18649978552896,
To what extent did the music make you feel ,ASHAMED,30MonoWAV/30MonoH3.wav,2,2,1,7,,,,,0,13,13,6,0,4,4,4,,,,,,,,,1,0.8195441089992528,,,111,001,2019_Sep_10_1418,MusicAffectPsychophysiology2019,3.0.5,60.18649978552896,
To what extent did the music make you feel ,ACTIVE,30MonoWAV/30MonoH3.wav,2,2,1,7,,,,,0,13,13,6,0,5,5,9,,,,,,,,,2,1.8697140210060752,,,111,001,2019_Sep_10_1418,MusicAffectPsychophysiology2019,3.0.5,60.18649978552896,
To what extent did the music make you feel ,FRUSTRATED,30MonoWAV/30MonoH3.wav,2,2,1,7,,,,,0,13,13,6,0,6,6,3,,,,,,,,,1,0.5807203980002669,,,111,001,2019_Sep_10_1418,MusicAffectPsychophysiology2019,3.0.5,60.18649978552896,
To what extent did the music make you feel ,SCARED,30MonoWAV/30MonoH3.wav,2,2,1,7,,,,,0,13,13,6,0,7,7,11,,,,,,,,,1,1.036347729001136,,,111,001,2019_Sep_10_1418,MusicAffectPsychophysiology2019,3.0.5,60.18649978552896,
To what extent did the music make you feel ,HAPPY,30MonoWAV/30MonoH3.wav,2,2,1,7,,,,,0,13,13,6,0,8,8,6,,,,,,,,,1,1.236477679995005,,,111,001,2019_Sep_10_1418,MusicAffectPsychophysiology2019,3.0.5,60.18649978552896,
To what extent did the music make you feel ,ANGRY,30MonoWAV/30MonoH3.wav,2,2,1,7,,,,,0,13,13,6,0,9,9,2,,,,,,,,,1,2.7024146190015017,,,111,001,2019_Sep_10_1418,MusicAffectPsychophysiology2019,3.0.5,60.18649978552896,
To what extent did the music make you feel ,ALERT,30MonoWAV/30MonoH3.wav,2,2,1,7,,,,,0,13,13,6,0,10,10,8,,,,,,,,,3,1.3666508669994073,,,111,001,2019_Sep_10_1418,MusicAffectPsychophysiology2019,3.0.5,60.18649978552896,
To what extent did the music make you feel ,SAD,30MonoWAV/30MonoH3.wav,2,2,1,7,,,,,0,13,13,6,0,11,11,0,,,,,,,,,1,1.1021292279983754,,,111,001,2019_Sep_10_1418,MusicAffectPsychophysiology2019,3.0.5,60.18649978552896,
,,30MonoWAV/30MonoH3.wav,2,2,1,7,,,,,0,13,13,6,,,,,,,,,,,,,,,,,111,001,2019_Sep_10_1418,MusicAffectPsychophysiology2019,3.0.5,60.18649978552896,
To what extent did the music make you feel ,EXCITED,30MonoWAV/30MonoF3.wav,1,2,2,3,,,,,0,14,14,2,0,0,0,7,,,2,5.003895275003742,1,1.0863364190008724,1,1.236517288001778,2,1.6756874730053823,,,111,001,2019_Sep_10_1418,MusicAffectPsychophysiology2019,3.0.5,60.18649978552896,
To what extent did the music make you feel ,HAPPY,30MonoWAV/30MonoF3.wav,1,2,2,3,,,,,0,14,14,2,0,1,1,6,,,,,,,,,1,0.836925407005765,,,111,001,2019_Sep_10_1418,MusicAffectPsychophysiology2019,3.0.5,60.18649978552896,
To what extent did the music make you feel ,GUILTY,30MonoWAV/30MonoF3.wav,1,2,2,3,,,,,0,14,14,2,0,2,2,5,,,,,,,,,1,0.9680874330006191,,,111,001,2019_Sep_10_1418,MusicAffectPsychophysiology2019,3.0.5,60.18649978552896,
To what extent did the music make you feel ,ACTIVE,30MonoWAV/30MonoF3.wav,1,2,2,3,,,,,0,14,14,2,0,3,3,9,,,,,,,,,2,1.0697211310034618,,,111,001,2019_Sep_10_1418,MusicAffectPsychophysiology2019,3.0.5,60.18649978552896,
To what extent did the music make you feel ,TENDER,30MonoWAV/30MonoF3.wav,1,2,2,3,,,,,0,14,14,2,0,4,4,10,,,,,,,,,1,0.9218097269986174,,,111,001,2019_Sep_10_1418,MusicAffectPsychophysiology2019,3.0.5,60.18649978552896,
To what extent did the music make you feel ,SCARED,30MonoWAV/30MonoF3.wav,1,2,2,3,,,,,0,14,14,2,0,5,5,11,,,,,,,,,1,1.6248317700010375,,,111,001,2019_Sep_10_1418,MusicAffectPsychophysiology2019,3.0.5,60.18649978552896,
To what extent did the music make you feel ,SAD,30MonoWAV/30MonoF3.wav,1,2,2,3,,,,,0,14,14,2,0,6,6,0,,,,,,,,,1,1.1354861349973362,,,111,001,2019_Sep_10_1418,MusicAffectPsychophysiology2019,3.0.5,60.18649978552896,
To what extent did the music make you feel ,ANGRY,30MonoWAV/30MonoF3.wav,1,2,2,3,,,,,0,14,14,2,0,7,7,2,,,,,,,,,1,0.8191513999991002,,,111,001,2019_Sep_10_1418,MusicAffectPsychophysiology2019,3.0.5,60.18649978552896,
To what extent did the music make you feel ,ALERT,30MonoWAV/30MonoF3.wav,1,2,2,3,,,,,0,14,14,2,0,8,8,8,,,,,,,,,3,1.0855433890028507,,,111,001,2019_Sep_10_1418,MusicAffectPsychophysiology2019,3.0.5,60.18649978552896,
To what extent did the music make you feel ,FRUSTRATED,30MonoWAV/30MonoF3.wav,1,2,2,3,,,,,0,14,14,2,0,9,9,3,,,,,,,,,1,2.400356284000736,,,111,001,2019_Sep_10_1418,MusicAffectPsychophysiology2019,3.0.5,60.18649978552896,
To what extent did the music make you feel ,ANXIOUS ,30MonoWAV/30MonoF3.wav,1,2,2,3,,,,,0,14,14,2,0,10,10,1,,,,,,,,,1,1.0024568079970777,,,111,001,2019_Sep_10_1418,MusicAffectPsychophysiology2019,3.0.5,60.18649978552896,
To what extent did the music make you feel ,ASHAMED,30MonoWAV/30MonoF3.wav,1,2,2,3,,,,,0,14,14,2,0,11,11,4,,,,,,,,,1,0.7857770159971551,,,111,001,2019_Sep_10_1418,MusicAffectPsychophysiology2019,3.0.5,60.18649978552896,
,,30MonoWAV/30MonoF3.wav,1,2,2,3,,,,,0,14,14,2,,,,,,,,,,,,,,,,,111,001,2019_Sep_10_1418,MusicAffectPsychophysiology2019,3.0.5,60.18649978552896,
To what extent did the music make you feel ,ALERT,30MonoWAV/30MonoS1.wav,1,1,3,9,,,,,0,15,15,8,0,0,0,8,,,1,2.3192906960030086,1,1.468548071999976,1,1.1855525139981182,1,1.9525482179960818,,,111,001,2019_Sep_10_1418,MusicAffectPsychophysiology2019,3.0.5,60.18649978552896,
To what extent did the music make you feel ,ASHAMED,30MonoWAV/30MonoS1.wav,1,1,3,9,,,,,0,15,15,8,0,1,1,4,,,,,,,,,1,0.8354990589941735,,,111,001,2019_Sep_10_1418,MusicAffectPsychophysiology2019,3.0.5,60.18649978552896,
To what extent did the music make you feel ,EXCITED,30MonoWAV/30MonoS1.wav,1,1,3,9,,,,,0,15,15,8,0,2,2,7,,,,,,,,,1,0.9360758070033626,,,111,001,2019_Sep_10_1418,MusicAffectPsychophysiology2019,3.0.5,60.18649978552896,
To what extent did the music make you feel ,SAD,30MonoWAV/30MonoS1.wav,1,1,3,9,,,,,0,15,15,8,0,3,3,0,,,,,,,,,2,1.569891835002636,,,111,001,2019_Sep_10_1418,MusicAffectPsychophysiology2019,3.0.5,60.18649978552896,
To what extent did the music make you feel ,ANXIOUS ,30MonoWAV/30MonoS1.wav,1,1,3,9,,,,,0,15,15,8,0,4,4,1,,,,,,,,,1,3.318330665999383,,,111,001,2019_Sep_10_1418,MusicAffectPsychophysiology2019,3.0.5,60.18649978552896,
To what extent did the music make you feel ,FRUSTRATED,30MonoWAV/30MonoS1.wav,1,1,3,9,,,,,0,15,15,8,0,5,5,3,,,,,,,,,1,0.7523866690025898,,,111,001,2019_Sep_10_1418,MusicAffectPsychophysiology2019,3.0.5,60.18649978552896,
To what extent did the music make you feel ,ACTIVE,30MonoWAV/30MonoS1.wav,1,1,3,9,,,,,0,15,15,8,0,6,6,9,,,,,,,,,1,1.3522365059980075,,,111,001,2019_Sep_10_1418,MusicAffectPsychophysiology2019,3.0.5,60.18649978552896,
To what extent did the music make you feel ,HAPPY,30MonoWAV/30MonoS1.wav,1,1,3,9,,,,,0,15,15,8,0,7,7,6,,,,,,,,,1,1.0187731530022575,,,111,001,2019_Sep_10_1418,MusicAffectPsychophysiology2019,3.0.5,60.18649978552896,
To what extent did the music make you feel ,SCARED,30MonoWAV/30MonoS1.wav,1,1,3,9,,,,,0,15,15,8,0,8,8,11,,,,,,,,,1,0.8523250729995198,,,111,001,2019_Sep_10_1418,MusicAffectPsychophysiology2019,3.0.5,60.18649978552896,
To what extent did the music make you feel ,GUILTY,30MonoWAV/30MonoS1.wav,1,1,3,9,,,,,0,15,15,8,0,9,9,5,,,,,,,,,1,2.352049655994051,,,111,001,2019_Sep_10_1418,MusicAffectPsychophysiology2019,3.0.5,60.18649978552896,
To what extent did the music make you feel ,TENDER,30MonoWAV/30MonoS1.wav,1,1,3,9,,,,,0,15,15,8,0,10,10,10,,,,,,,,,2,1.3699995209972258,,,111,001,2019_Sep_10_1418,MusicAffectPsychophysiology2019,3.0.5,60.18649978552896,
To what extent did the music make you feel ,ANGRY,30MonoWAV/30MonoS1.wav,1,1,3,9,,,,,0,15,15,8,0,11,11,2,,,,,,,,,1,0.8693755360000068,,,111,001,2019_Sep_10_1418,MusicAffectPsychophysiology2019,3.0.5,60.18649978552896,
,,30MonoWAV/30MonoS1.wav,1,1,3,9,,,,,0,15,15,8,,,,,,,,,,,,,,,,,111,001,2019_Sep_10_1418,MusicAffectPsychophysiology2019,3.0.5,60.18649978552896,
To what extent did the music make you feel ,HAPPY,30MonoWAV/30MonoH2.wav,2,2,1,6,,,,,1,0,16,5,0,0,0,6,,,4,2.5029809700063197,3,1.985895908997918,2,1.6852380679993075,3,3.277103229003842,,,111,001,2019_Sep_10_1418,MusicAffectPsychophysiology2019,3.0.5,60.18649978552896,
To what extent did the music make you feel ,EXCITED,30MonoWAV/30MonoH2.wav,2,2,1,6,,,,,1,0,16,5,0,1,1,7,,,,,,,,,3,0.9189431530030561,,,111,001,2019_Sep_10_1418,MusicAffectPsychophysiology2019,3.0.5,60.18649978552896,
To what extent did the music make you feel ,ASHAMED,30MonoWAV/30MonoH2.wav,2,2,1,6,,,,,1,0,16,5,0,2,2,4,,,,,,,,,1,1.3668404209965956,,,111,001,2019_Sep_10_1418,MusicAffectPsychophysiology2019,3.0.5,60.18649978552896,
To what extent did the music make you feel ,ACTIVE,30MonoWAV/30MonoH2.wav,2,2,1,6,,,,,1,0,16,5,0,3,3,9,,,,,,,,,2,1.7187553709954955,,,111,001,2019_Sep_10_1418,MusicAffectPsychophysiology2019,3.0.5,60.18649978552896,
To what extent did the music make you feel ,SCARED,30MonoWAV/30MonoH2.wav,2,2,1,6,,,,,1,0,16,5,0,4,4,11,,,,,,,,,1,1.0526435710053192,,,111,001,2019_Sep_10_1418,MusicAffectPsychophysiology2019,3.0.5,60.18649978552896,
To what extent did the music make you feel ,GUILTY,30MonoWAV/30MonoH2.wav,2,2,1,6,,,,,1,0,16,5,0,5,5,5,,,,,,,,,1,0.9363408529970911,,,111,001,2019_Sep_10_1418,MusicAffectPsychophysiology2019,3.0.5,60.18649978552896,
To what extent did the music make you feel ,ALERT,30MonoWAV/30MonoH2.wav,2,2,1,6,,,,,1,0,16,5,0,6,6,8,,,,,,,,,3,1.3685772429962526,,,111,001,2019_Sep_10_1418,MusicAffectPsychophysiology2019,3.0.5,60.18649978552896,
To what extent did the music make you feel ,ANGRY,30MonoWAV/30MonoH2.wav,2,2,1,6,,,,,1,0,16,5,0,7,7,2,,,,,,,,,1,0.9197264859976713,,,111,001,2019_Sep_10_1418,MusicAffectPsychophysiology2019,3.0.5,60.18649978552896,
To what extent did the music make you feel ,SAD,30MonoWAV/30MonoH2.wav,2,2,1,6,,,,,1,0,16,5,0,8,8,0,,,,,,,,,1,1.0703871930018067,,,111,001,2019_Sep_10_1418,MusicAffectPsychophysiology2019,3.0.5,60.18649978552896,
To what extent did the music make you feel ,TENDER,30MonoWAV/30MonoH2.wav,2,2,1,6,,,,,1,0,16,5,0,9,9,10,,,,,,,,,2,0.9697788070043316,,,111,001,2019_Sep_10_1418,MusicAffectPsychophysiology2019,3.0.5,60.18649978552896,
To what extent did the music make you feel ,FRUSTRATED,30MonoWAV/30MonoH2.wav,2,2,1,6,,,,,1,0,16,5,0,10,10,3,,,,,,,,,1,1.0241171629968449,,,111,001,2019_Sep_10_1418,MusicAffectPsychophysiology2019,3.0.5,60.18649978552896,
To what extent did the music make you feel ,ANXIOUS ,30MonoWAV/30MonoH2.wav,2,2,1,6,,,,,1,0,16,5,0,11,11,1,,,,,,,,,1,1.0850382179996814,,,111,001,2019_Sep_10_1418,MusicAffectPsychophysiology2019,3.0.5,60.18649978552896,
,,30MonoWAV/30MonoH2.wav,2,2,1,6,,,,,1,0,16,5,,,,,,,,,,,,,,,,,111,001,2019_Sep_10_1418,MusicAffectPsychophysiology2019,3.0.5,60.18649978552896,
To what extent did the music make you feel ,ANGRY,30MonoWAV/30MonoS2.wav,1,1,3,10,,,,,1,1,17,9,0,0,0,2,,,1,4.718650878996414,1,1.236551314999815,1,1.0703099940001266,1,1.5504956479999237,,,111,001,2019_Sep_10_1418,MusicAffectPsychophysiology2019,3.0.5,60.18649978552896,
To what extent did the music make you feel ,ASHAMED,30MonoWAV/30MonoS2.wav,1,1,3,10,,,,,1,1,17,9,0,1,1,4,,,,,,,,,1,0.5989836930020829,,,111,001,2019_Sep_10_1418,MusicAffectPsychophysiology2019,3.0.5,60.18649978552896,
To what extent did the music make you feel ,HAPPY,30MonoWAV/30MonoS2.wav,1,1,3,10,,,,,1,1,17,9,0,2,2,6,,,,,,,,,1,1.1030231250042561,,,111,001,2019_Sep_10_1418,MusicAffectPsychophysiology2019,3.0.5,60.18649978552896,
To what extent did the music make you feel ,TENDER,30MonoWAV/30MonoS2.wav,1,1,3,10,,,,,1,1,17,9,0,3,3,10,,,,,,,,,2,1.467502997998963,,,111,001,2019_Sep_10_1418,MusicAffectPsychophysiology2019,3.0.5,60.18649978552896,
To what extent did the music make you feel ,ALERT,30MonoWAV/30MonoS2.wav,1,1,3,10,,,,,1,1,17,9,0,4,4,8,,,,,,,,,1,3.086032029998023,,,111,001,2019_Sep_10_1418,MusicAffectPsychophysiology2019,3.0.5,60.18649978552896,
To what extent did the music make you feel ,GUILTY,30MonoWAV/30MonoS2.wav,1,1,3,10,,,,,1,1,17,9,0,5,5,5,,,,,,,,,1,1.4521685719955713,,,111,001,2019_Sep_10_1418,MusicAffectPsychophysiology2019,3.0.5,60.18649978552896,
To what extent did the music make you feel ,FRUSTRATED,30MonoWAV/30MonoS2.wav,1,1,3,10,,,,,1,1,17,9,0,6,6,3,,,,,,,,,1,1.2032710439962102,,,111,001,2019_Sep_10_1418,MusicAffectPsychophysiology2019,3.0.5,60.18649978552896,
To what extent did the music make you feel ,SAD,30MonoWAV/30MonoS2.wav,1,1,3,10,,,,,1,1,17,9,0,7,7,0,,,,,,,,,4,2.200471252996067,,,111,001,2019_Sep_10_1418,MusicAffectPsychophysiology2019,3.0.5,60.18649978552896,
To what extent did the music make you feel ,ANXIOUS ,30MonoWAV/30MonoS2.wav,1,1,3,10,,,,,1,1,17,9,0,8,8,1,,,,,,,,,2,1.603213817004871,,,111,001,2019_Sep_10_1418,MusicAffectPsychophysiology2019,3.0.5,60.18649978552896,
To what extent did the music make you feel ,ACTIVE,30MonoWAV/30MonoS2.wav,1,1,3,10,,,,,1,1,17,9,0,9,9,9,,,,,,,,,1,1.5023975490039447,,,111,001,2019_Sep_10_1418,MusicAffectPsychophysiology2019,3.0.5,60.18649978552896,
To what extent did the music make you feel ,EXCITED,30MonoWAV/30MonoS2.wav,1,1,3,10,,,,,1,1,17,9,0,10,10,7,,,,,,,,,1,1.7678061980041093,,,111,001,2019_Sep_10_1418,MusicAffectPsychophysiology2019,3.0.5,60.18649978552896,
To what extent did the music make you feel ,SCARED,30MonoWAV/30MonoS2.wav,1,1,3,10,,,,,1,1,17,9,0,11,11,11,,,,,,,,,1,1.001680340996245,,,111,001,2019_Sep_10_1418,MusicAffectPsychophysiology2019,3.0.5,60.18649978552896,
,,30MonoWAV/30MonoS2.wav,1,1,3,10,,,,,1,1,17,9,,,,,,,,,,,,,,,,,111,001,2019_Sep_10_1418,MusicAffectPsychophysiology2019,3.0.5,60.18649978552896,
To what extent did the music make you feel ,SCARED,30MonoWAV/30MonoT2.wav,2,1,4,14,,,,,1,2,18,13,0,0,0,11,,,2,4.034587257003295,1,1.4867520780026098,1,1.8533746969987988,1,1.5180726039980073,,,111,001,2019_Sep_10_1418,MusicAffectPsychophysiology2019,3.0.5,60.18649978552896,
To what extent did the music make you feel ,TENDER,30MonoWAV/30MonoT2.wav,2,1,4,14,,,,,1,2,18,13,0,1,1,10,,,,,,,,,2,3.7700807509972947,,,111,001,2019_Sep_10_1418,MusicAffectPsychophysiology2019,3.0.5,60.18649978552896,
To what extent did the music make you feel ,FRUSTRATED,30MonoWAV/30MonoT2.wav,2,1,4,14,,,,,1,2,18,13,0,2,2,3,,,,,,,,,3,2.179866984995897,,,111,001,2019_Sep_10_1418,MusicAffectPsychophysiology2019,3.0.5,60.18649978552896,
To what extent did the music make you feel ,HAPPY,30MonoWAV/30MonoT2.wav,2,1,4,14,,,,,1,2,18,13,0,3,3,6,,,,,,,,,1,1.4026470629978576,,,111,001,2019_Sep_10_1418,MusicAffectPsychophysiology2019,3.0.5,60.18649978552896,
To what extent did the music make you feel ,SAD,30MonoWAV/30MonoT2.wav,2,1,4,14,,,,,1,2,18,13,0,4,4,0,,,,,,,,,3,1.6199518889989122,,,111,001,2019_Sep_10_1418,MusicAffectPsychophysiology2019,3.0.5,60.18649978552896,
To what extent did the music make you feel ,ASHAMED,30MonoWAV/30MonoT2.wav,2,1,4,14,,,,,1,2,18,13,0,5,5,4,,,,,,,,,1,1.0844095659995219,,,111,001,2019_Sep_10_1418,MusicAffectPsychophysiology2019,3.0.5,60.18649978552896,
To what extent did the music make you feel ,ANGRY,30MonoWAV/30MonoT2.wav,2,1,4,14,,,,,1,2,18,13,0,6,6,2,,,,,,,,,1,0.8196624519987381,,,111,001,2019_Sep_10_1418,MusicAffectPsychophysiology2019,3.0.5,60.18649978552896,
To what extent did the music make you feel ,ACTIVE,30MonoWAV/30MonoT2.wav,2,1,4,14,,,,,1,2,18,13,0,7,7,9,,,,,,,,,1,1.1864529350059456,,,111,001,2019_Sep_10_1418,MusicAffectPsychophysiology2019,3.0.5,60.18649978552896,
To what extent did the music make you feel ,EXCITED,30MonoWAV/30MonoT2.wav,2,1,4,14,,,,,1,2,18,13,0,8,8,7,,,,,,,,,1,0.8687813670039759,,,111,001,2019_Sep_10_1418,MusicAffectPsychophysiology2019,3.0.5,60.18649978552896,
To what extent did the music make you feel ,ANXIOUS ,30MonoWAV/30MonoT2.wav,2,1,4,14,,,,,1,2,18,13,0,9,9,1,,,,,,,,,1,1.217183009001019,,,111,001,2019_Sep_10_1418,MusicAffectPsychophysiology2019,3.0.5,60.18649978552896,
To what extent did the music make you feel ,GUILTY,30MonoWAV/30MonoT2.wav,2,1,4,14,,,,,1,2,18,13,0,10,10,5,,,,,,,,,1,0.7359807829998317,,,111,001,2019_Sep_10_1418,MusicAffectPsychophysiology2019,3.0.5,60.18649978552896,
To what extent did the music make you feel ,ALERT,30MonoWAV/30MonoT2.wav,2,1,4,14,,,,,1,2,18,13,0,11,11,8,,,,,,,,,1,1.386387957005354,,,111,001,2019_Sep_10_1418,MusicAffectPsychophysiology2019,3.0.5,60.18649978552896,
,,30MonoWAV/30MonoT2.wav,2,1,4,14,,,,,1,2,18,13,,,,,,,,,,,,,,,,,111,001,2019_Sep_10_1418,MusicAffectPsychophysiology2019,3.0.5,60.18649978552896,
To what extent did the music make you feel ,SAD,30MonoWAV/30MonoH3.wav,2,2,1,7,,,,,1,3,19,6,0,0,0,0,,,4,1.9032516649967874,3,1.4845650890056277,2,1.8532893770025112,1,1.7735000449974905,,,111,001,2019_Sep_10_1418,MusicAffectPsychophysiology2019,3.0.5,60.18649978552896,
To what extent did the music make you feel ,ASHAMED,30MonoWAV/30MonoH3.wav,2,2,1,7,,,,,1,3,19,6,0,1,1,4,,,,,,,,,1,0.8350800420012092,,,111,001,2019_Sep_10_1418,MusicAffectPsychophysiology2019,3.0.5,60.18649978552896,
To what extent did the music make you feel ,ACTIVE,30MonoWAV/30MonoH3.wav,2,2,1,7,,,,,1,3,19,6,0,2,2,9,,,,,,,,,3,1.083773336999002,,,111,001,2019_Sep_10_1418,MusicAffectPsychophysiology2019,3.0.5,60.18649978552896,
To what extent did the music make you feel ,FRUSTRATED,30MonoWAV/30MonoH3.wav,2,2,1,7,,,,,1,3,19,6,0,3,3,3,,,,,,,,,1,0.8860309550000238,,,111,001,2019_Sep_10_1418,MusicAffectPsychophysiology2019,3.0.5,60.18649978552896,
To what extent did the music make you feel ,ALERT,30MonoWAV/30MonoH3.wav,2,2,1,7,,,,,1,3,19,6,0,4,4,8,,,,,,,,,3,1.8012167989945738,,,111,001,2019_Sep_10_1418,MusicAffectPsychophysiology2019,3.0.5,60.18649978552896,
To what extent did the music make you feel ,SCARED,30MonoWAV/30MonoH3.wav,2,2,1,7,,,,,1,3,19,6,0,5,5,11,,,,,,,,,1,0.9358204519958235,,,111,001,2019_Sep_10_1418,MusicAffectPsychophysiology2019,3.0.5,60.18649978552896,
To what extent did the music make you feel ,ANXIOUS ,30MonoWAV/30MonoH3.wav,2,2,1,7,,,,,1,3,19,6,0,6,6,1,,,,,,,,,1,1.066979282993998,,,111,001,2019_Sep_10_1418,MusicAffectPsychophysiology2019,3.0.5,60.18649978552896,
To what extent did the music make you feel ,GUILTY,30MonoWAV/30MonoH3.wav,2,2,1,7,,,,,1,3,19,6,0,7,7,5,,,,,,,,,1,0.8036689419968752,,,111,001,2019_Sep_10_1418,MusicAffectPsychophysiology2019,3.0.5,60.18649978552896,
To what extent did the music make you feel ,TENDER,30MonoWAV/30MonoH3.wav,2,2,1,7,,,,,1,3,19,6,0,8,8,10,,,,,,,,,1,1.452153732003353,,,111,001,2019_Sep_10_1418,MusicAffectPsychophysiology2019,3.0.5,60.18649978552896,
To what extent did the music make you feel ,EXCITED,30MonoWAV/30MonoH3.wav,2,2,1,7,,,,,1,3,19,6,0,9,9,7,,,,,,,,,2,1.8358526459996938,,,111,001,2019_Sep_10_1418,MusicAffectPsychophysiology2019,3.0.5,60.18649978552896,
To what extent did the music make you feel ,ANGRY,30MonoWAV/30MonoH3.wav,2,2,1,7,,,,,1,3,19,6,0,10,10,2,,,,,,,,,1,0.7515389729960589,,,111,001,2019_Sep_10_1418,MusicAffectPsychophysiology2019,3.0.5,60.18649978552896,
To what extent did the music make you feel ,HAPPY,30MonoWAV/30MonoH3.wav,2,2,1,7,,,,,1,3,19,6,0,11,11,6,,,,,,,,,3,2.036098064003454,,,111,001,2019_Sep_10_1418,MusicAffectPsychophysiology2019,3.0.5,60.18649978552896,
,,30MonoWAV/30MonoH3.wav,2,2,1,7,,,,,1,3,19,6,,,,,,,,,,,,,,,,,111,001,2019_Sep_10_1418,MusicAffectPsychophysiology2019,3.0.5,60.18649978552896,
To what extent did the music make you feel ,ANGRY,30MonoWAV/30MonoT4.wav,2,1,4,16,,,,,1,4,20,15,0,0,0,2,,,2,2.5190570470003877,1,1.501933129002282,2,1.7021250050020171,1,1.583084660996974,,,111,001,2019_Sep_10_1418,MusicAffectPsychophysiology2019,3.0.5,60.18649978552896,
To what extent did the music make you feel ,ANXIOUS ,30MonoWAV/30MonoT4.wav,2,1,4,16,,,,,1,4,20,15,0,1,1,1,,,,,,,,,1,0.7858093260001624,,,111,001,2019_Sep_10_1418,MusicAffectPsychophysiology2019,3.0.5,60.18649978552896,
To what extent did the music make you feel ,ACTIVE,30MonoWAV/30MonoT4.wav,2,1,4,16,,,,,1,4,20,15,0,2,2,9,,,,,,,,,2,1.402210912994633,,,111,001,2019_Sep_10_1418,MusicAffectPsychophysiology2019,3.0.5,60.18649978552896,
To what extent did the music make you feel ,ASHAMED,30MonoWAV/30MonoT4.wav,2,1,4,16,,,,,1,4,20,15,0,3,3,4,,,,,,,,,1,0.6363081820018124,,,111,001,2019_Sep_10_1418,MusicAffectPsychophysiology2019,3.0.5,60.18649978552896,
To what extent did the music make you feel ,ALERT,30MonoWAV/30MonoT4.wav,2,1,4,16,,,,,1,4,20,15,0,4,4,8,,,,,,,,,1,0.9027135079959407,,,111,001,2019_Sep_10_1418,MusicAffectPsychophysiology2019,3.0.5,60.18649978552896,
To what extent did the music make you feel ,SCARED,30MonoWAV/30MonoT4.wav,2,1,4,16,,,,,1,4,20,15,0,5,5,11,,,,,,,,,1,1.136053156995331,,,111,001,2019_Sep_10_1418,MusicAffectPsychophysiology2019,3.0.5,60.18649978552896,
To what extent did the music make you feel ,FRUSTRATED,30MonoWAV/30MonoT4.wav,2,1,4,16,,,,,1,4,20,15,0,6,6,3,,,,,,,,,1,0.8154721920000156,,,111,001,2019_Sep_10_1418,MusicAffectPsychophysiology2019,3.0.5,60.18649978552896,
To what extent did the music make you feel ,SAD,30MonoWAV/30MonoT4.wav,2,1,4,16,,,,,1,4,20,15,0,7,7,0,,,,,,,,,3,1.303375062001578,,,111,001,2019_Sep_10_1418,MusicAffectPsychophysiology2019,3.0.5,60.18649978552896,
To what extent did the music make you feel ,TENDER,30MonoWAV/30MonoT4.wav,2,1,4,16,,,,,1,4,20,15,0,8,8,10,,,,,,,,,3,1.2526668479986256,,,111,001,2019_Sep_10_1418,MusicAffectPsychophysiology2019,3.0.5,60.18649978552896,
To what extent did the music make you feel ,EXCITED,30MonoWAV/30MonoT4.wav,2,1,4,16,,,,,1,4,20,15,0,9,9,7,,,,,,,,,1,1.0704688080004416,,,111,001,2019_Sep_10_1418,MusicAffectPsychophysiology2019,3.0.5,60.18649978552896,
To what extent did the music make you feel ,HAPPY,30MonoWAV/30MonoT4.wav,2,1,4,16,,,,,1,4,20,15,0,10,10,6,,,,,,,,,2,1.369043437000073,,,111,001,2019_Sep_10_1418,MusicAffectPsychophysiology2019,3.0.5,60.18649978552896,
To what extent did the music make you feel ,GUILTY,30MonoWAV/30MonoT4.wav,2,1,4,16,,,,,1,4,20,15,0,11,11,5,,,,,,,,,1,0.43334986500121886,,,111,001,2019_Sep_10_1418,MusicAffectPsychophysiology2019,3.0.5,60.18649978552896,
,,30MonoWAV/30MonoT4.wav,2,1,4,16,,,,,1,4,20,15,,,,,,,,,,,,,,,,,111,001,2019_Sep_10_1418,MusicAffectPsychophysiology2019,3.0.5,60.18649978552896,
To what extent did the music make you feel ,SAD,30MonoWAV/30MonoF2.wav,1,2,2,2,,,,,1,5,21,1,0,0,0,0,,,2,4.602209883996693,1,2.2691172100021504,1,1.770258272998035,2,4.092349298000045,,,111,001,2019_Sep_10_1418,MusicAffectPsychophysiology2019,3.0.5,60.18649978552896,
To what extent did the music make you feel ,ALERT,30MonoWAV/30MonoF2.wav,1,2,2,2,,,,,1,5,21,1,0,1,1,8,,,,,,,,,3,1.266562419004913,,,111,001,2019_Sep_10_1418,MusicAffectPsychophysiology2019,3.0.5,60.18649978552896,
To what extent did the music make you feel ,ANXIOUS ,30MonoWAV/30MonoF2.wav,1,2,2,2,,,,,1,5,21,1,0,2,2,1,,,,,,,,,3,1.719793872005539,,,111,001,2019_Sep_10_1418,MusicAffectPsychophysiology2019,3.0.5,60.18649978552896,
To what extent did the music make you feel ,ACTIVE,30MonoWAV/30MonoF2.wav,1,2,2,2,,,,,1,5,21,1,0,3,3,9,,,,,,,,,2,1.30839130700042,,,111,001,2019_Sep_10_1418,MusicAffectPsychophysiology2019,3.0.5,60.18649978552896,
To what extent did the music make you feel ,TENDER,30MonoWAV/30MonoF2.wav,1,2,2,2,,,,,1,5,21,1,0,4,4,10,,,,,,,,,1,1.218983256003412,,,111,001,2019_Sep_10_1418,MusicAffectPsychophysiology2019,3.0.5,60.18649978552896,
To what extent did the music make you feel ,FRUSTRATED,30MonoWAV/30MonoF2.wav,1,2,2,2,,,,,1,5,21,1,0,5,5,3,,,,,,,,,1,1.0721785499990801,,,111,001,2019_Sep_10_1418,MusicAffectPsychophysiology2019,3.0.5,60.18649978552896,
To what extent did the music make you feel ,ANGRY,30MonoWAV/30MonoF2.wav,1,2,2,2,,,,,1,5,21,1,0,6,6,2,,,,,,,,,1,1.0846318309995695,,,111,001,2019_Sep_10_1418,MusicAffectPsychophysiology2019,3.0.5,60.18649978552896,
To what extent did the music make you feel ,EXCITED,30MonoWAV/30MonoF2.wav,1,2,2,2,,,,,1,5,21,1,0,7,7,7,,,,,,,,,1,1.069583614000294,,,111,001,2019_Sep_10_1418,MusicAffectPsychophysiology2019,3.0.5,60.18649978552896,
To what extent did the music make you feel ,HAPPY,30MonoWAV/30MonoF2.wav,1,2,2,2,,,,,1,5,21,1,0,8,8,6,,,,,,,,,1,1.0006037509956514,,,111,001,2019_Sep_10_1418,MusicAffectPsychophysiology2019,3.0.5,60.18649978552896,
To what extent did the music make you feel ,ASHAMED,30MonoWAV/30MonoF2.wav,1,2,2,2,,,,,1,5,21,1,0,9,9,4,,,,,,,,,1,0.9528356579976389,,,111,001,2019_Sep_10_1418,MusicAffectPsychophysiology2019,3.0.5,60.18649978552896,
To what extent did the music make you feel ,SCARED,30MonoWAV/30MonoF2.wav,1,2,2,2,,,,,1,5,21,1,0,10,10,11,,,,,,,,,3,1.3846835730000748,,,111,001,2019_Sep_10_1418,MusicAffectPsychophysiology2019,3.0.5,60.18649978552896,
To what extent did the music make you feel ,GUILTY,30MonoWAV/30MonoF2.wav,1,2,2,2,,,,,1,5,21,1,0,11,11,5,,,,,,,,,1,1.1026154799983487,,,111,001,2019_Sep_10_1418,MusicAffectPsychophysiology2019,3.0.5,60.18649978552896,
,,30MonoWAV/30MonoF2.wav,1,2,2,2,,,,,1,5,21,1,,,,,,,,,,,,,,,,,111,001,2019_Sep_10_1418,MusicAffectPsychophysiology2019,3.0.5,60.18649978552896,
To what extent did the music make you feel ,TENDER,30MonoWAV/30MonoF4.wav,1,2,2,4,,,,,1,6,22,3,0,0,0,10,,,3,4.518125672999304,1,1.3682963640021626,1,2.2030806510010734,1,1.601446867993218,,,111,001,2019_Sep_10_1418,MusicAffectPsychophysiology2019,3.0.5,60.18649978552896,
To what extent did the music make you feel ,ANGRY,30MonoWAV/30MonoF4.wav,1,2,2,4,,,,,1,6,22,3,0,1,1,2,,,,,,,,,1,2.5515981490025297,,,111,001,2019_Sep_10_1418,MusicAffectPsychophysiology2019,3.0.5,60.18649978552896,
To what extent did the music make you feel ,GUILTY,30MonoWAV/30MonoF4.wav,1,2,2,4,,,,,1,6,22,3,0,2,2,5,,,,,,,,,1,0.918942338998022,,,111,001,2019_Sep_10_1418,MusicAffectPsychophysiology2019,3.0.5,60.18649978552896,
To what extent did the music make you feel ,SCARED,30MonoWAV/30MonoF4.wav,1,2,2,4,,,,,1,6,22,3,0,3,3,11,,,,,,,,,1,3.616014235994953,,,111,001,2019_Sep_10_1418,MusicAffectPsychophysiology2019,3.0.5,60.18649978552896,
To what extent did the music make you feel ,SAD,30MonoWAV/30MonoF4.wav,1,2,2,4,,,,,1,6,22,3,0,4,4,0,,,,,,,,,2,1.2007639830044354,,,111,001,2019_Sep_10_1418,MusicAffectPsychophysiology2019,3.0.5,60.18649978552896,
To what extent did the music make you feel ,ASHAMED,30MonoWAV/30MonoF4.wav,1,2,2,4,,,,,1,6,22,3,0,5,5,4,,,,,,,,,1,1.0522014769958332,,,111,001,2019_Sep_10_1418,MusicAffectPsychophysiology2019,3.0.5,60.18649978552896,
To what extent did the music make you feel ,EXCITED,30MonoWAV/30MonoF4.wav,1,2,2,4,,,,,1,6,22,3,0,6,6,7,,,,,,,,,1,1.485295803999179,,,111,001,2019_Sep_10_1418,MusicAffectPsychophysiology2019,3.0.5,60.18649978552896,
To what extent did the music make you feel ,ALERT,30MonoWAV/30MonoF4.wav,1,2,2,4,,,,,1,6,22,3,0,7,7,8,,,,,,,,,3,1.1689239999977872,,,111,001,2019_Sep_10_1418,MusicAffectPsychophysiology2019,3.0.5,60.18649978552896,
To what extent did the music make you feel ,ANXIOUS ,30MonoWAV/30MonoF4.wav,1,2,2,4,,,,,1,6,22,3,0,8,8,1,,,,,,,,,2,1.1195512400008738,,,111,001,2019_Sep_10_1418,MusicAffectPsychophysiology2019,3.0.5,60.18649978552896,
To what extent did the music make you feel ,FRUSTRATED,30MonoWAV/30MonoF4.wav,1,2,2,4,,,,,1,6,22,3,0,9,9,3,,,,,,,,,1,1.7854408440034604,,,111,001,2019_Sep_10_1418,MusicAffectPsychophysiology2019,3.0.5,60.18649978552896,
To what extent did the music make you feel ,ACTIVE,30MonoWAV/30MonoF4.wav,1,2,2,4,,,,,1,6,22,3,0,10,10,9,,,,,,,,,2,1.7185798640057328,,,111,001,2019_Sep_10_1418,MusicAffectPsychophysiology2019,3.0.5,60.18649978552896,
To what extent did the music make you feel ,HAPPY,30MonoWAV/30MonoF4.wav,1,2,2,4,,,,,1,6,22,3,0,11,11,6,,,,,,,,,1,1.2200371569997515,,,111,001,2019_Sep_10_1418,MusicAffectPsychophysiology2019,3.0.5,60.18649978552896,
,,30MonoWAV/30MonoF4.wav,1,2,2,4,,,,,1,6,22,3,,,,,,,,,,,,,,,,,111,001,2019_Sep_10_1418,MusicAffectPsychophysiology2019,3.0.5,60.18649978552896,
To what extent did the music make you feel ,ANXIOUS ,30MonoWAV/30MonoS4.wav,1,1,3,12,,,,,1,7,23,11,0,0,0,1,,,1,2.8016738730002544,1,1.4364266299962765,1,2.085415325993381,1,1.5451543090021005,,,111,001,2019_Sep_10_1418,MusicAffectPsychophysiology2019,3.0.5,60.18649978552896,
To what extent did the music make you feel ,EXCITED,30MonoWAV/30MonoS4.wav,1,1,3,12,,,,,1,7,23,11,0,1,1,7,,,,,,,,,1,1.1031491379981162,,,111,001,2019_Sep_10_1418,MusicAffectPsychophysiology2019,3.0.5,60.18649978552896,
To what extent did the music make you feel ,ANGRY,30MonoWAV/30MonoS4.wav,1,1,3,12,,,,,1,7,23,11,0,2,2,2,,,,,,,,,1,0.7999741550011095,,,111,001,2019_Sep_10_1418,MusicAffectPsychophysiology2019,3.0.5,60.18649978552896,
To what extent did the music make you feel ,FRUSTRATED,30MonoWAV/30MonoS4.wav,1,1,3,12,,,,,1,7,23,11,0,3,3,3,,,,,,,,,1,0.8032001809988287,,,111,001,2019_Sep_10_1418,MusicAffectPsychophysiology2019,3.0.5,60.18649978552896,
To what extent did the music make you feel ,HAPPY,30MonoWAV/30MonoS4.wav,1,1,3,12,,,,,1,7,23,11,0,4,4,6,,,,,,,,,1,0.9858020729952841,,,111,001,2019_Sep_10_1418,MusicAffectPsychophysiology2019,3.0.5,60.18649978552896,
To what extent did the music make you feel ,ACTIVE,30MonoWAV/30MonoS4.wav,1,1,3,12,,,,,1,7,23,11,0,5,5,9,,,,,,,,,1,1.4364678769998136,,,111,001,2019_Sep_10_1418,MusicAffectPsychophysiology2019,3.0.5,60.18649978552896,
To what extent did the music make you feel ,ASHAMED,30MonoWAV/30MonoS4.wav,1,1,3,12,,,,,1,7,23,11,0,6,6,4,,,,,,,,,1,0.8363228509988403,,,111,001,2019_Sep_10_1418,MusicAffectPsychophysiology2019,3.0.5,60.18649978552896,
To what extent did the music make you feel ,GUILTY,30MonoWAV/30MonoS4.wav,1,1,3,12,,,,,1,7,23,11,0,7,7,5,,,,,,,,,1,1.187263718995382,,,111,001,2019_Sep_10_1418,MusicAffectPsychophysiology2019,3.0.5,60.18649978552896,
To what extent did the music make you feel ,SAD,30MonoWAV/30MonoS4.wav,1,1,3,12,,,,,1,7,23,11,0,8,8,0,,,,,,,,,4,2.085326398999314,,,111,001,2019_Sep_10_1418,MusicAffectPsychophysiology2019,3.0.5,60.18649978552896,
To what extent did the music make you feel ,SCARED,30MonoWAV/30MonoS4.wav,1,1,3,12,,,,,1,7,23,11,0,9,9,11,,,,,,,,,1,1.1538215180044062,,,111,001,2019_Sep_10_1418,MusicAffectPsychophysiology2019,3.0.5,60.18649978552896,
To what extent did the music make you feel ,ALERT,30MonoWAV/30MonoS4.wav,1,1,3,12,,,,,1,7,23,11,0,10,10,8,,,,,,,,,1,0.23473977200046647,,,111,001,2019_Sep_10_1418,MusicAffectPsychophysiology2019,3.0.5,60.18649978552896,
To what extent did the music make you feel ,TENDER,30MonoWAV/30MonoS4.wav,1,1,3,12,,,,,1,7,23,11,0,11,11,10,,,,,,,,,1,2.4695794180006487,,,111,001,2019_Sep_10_1418,MusicAffectPsychophysiology2019,3.0.5,60.18649978552896,
,,30MonoWAV/30MonoS4.wav,1,1,3,12,,,,,1,7,23,11,,,,,,,,,,,,,,,,,111,001,2019_Sep_10_1418,MusicAffectPsychophysiology2019,3.0.5,60.18649978552896,
To what extent did the music make you feel ,ASHAMED,30MonoWAV/30MonoH4.wav,2,2,1,8,,,,,1,8,24,7,0,0,0,4,,,3,2.55271895199985,3,1.4502869709976949,2,1.419630412994593,1,1.2716525640062173,,,111,001,2019_Sep_10_1418,MusicAffectPsychophysiology2019,3.0.5,60.18649978552896,
To what extent did the music make you feel ,FRUSTRATED,30MonoWAV/30MonoH4.wav,2,2,1,8,,,,,1,8,24,7,0,1,1,3,,,,,,,,,1,0.8366395390039543,,,111,001,2019_Sep_10_1418,MusicAffectPsychophysiology2019,3.0.5,60.18649978552896,
To what extent did the music make you feel ,SAD,30MonoWAV/30MonoH4.wav,2,2,1,8,,,,,1,8,24,7,0,2,2,0,,,,,,,,,1,2.0684794829940074,,,111,001,2019_Sep_10_1418,MusicAffectPsychophysiology2019,3.0.5,60.18649978552896,
To what extent did the music make you feel ,HAPPY,30MonoWAV/30MonoH4.wav,2,2,1,8,,,,,1,8,24,7,0,3,3,6,,,,,,,,,3,1.15036636700097,,,111,001,2019_Sep_10_1418,MusicAffectPsychophysiology2019,3.0.5,60.18649978552896,
To what extent did the music make you feel ,EXCITED,30MonoWAV/30MonoH4.wav,2,2,1,8,,,,,1,8,24,7,0,4,4,7,,,,,,,,,2,1.1365960679977434,,,111,001,2019_Sep_10_1418,MusicAffectPsychophysiology2019,3.0.5,60.18649978552896,
To what extent did the music make you feel ,ALERT,30MonoWAV/30MonoH4.wav,2,2,1,8,,,,,1,8,24,7,0,5,5,8,,,,,,,,,3,1.1710936829986167,,,111,001,2019_Sep_10_1418,MusicAffectPsychophysiology2019,3.0.5,60.18649978552896,
To what extent did the music make you feel ,ANXIOUS ,30MonoWAV/30MonoH4.wav,2,2,1,8,,,,,1,8,24,7,0,6,6,1,,,,,,,,,1,1.2340984740003478,,,111,001,2019_Sep_10_1418,MusicAffectPsychophysiology2019,3.0.5,60.18649978552896,
To what extent did the music make you feel ,GUILTY,30MonoWAV/30MonoH4.wav,2,2,1,8,,,,,1,8,24,7,0,7,7,5,,,,,,,,,1,1.0515101269993465,,,111,001,2019_Sep_10_1418,MusicAffectPsychophysiology2019,3.0.5,60.18649978552896,
To what extent did the music make you feel ,SCARED,30MonoWAV/30MonoH4.wav,2,2,1,8,,,,,1,8,24,7,0,8,8,11,,,,,,,,,1,1.133077320002485,,,111,001,2019_Sep_10_1418,MusicAffectPsychophysiology2019,3.0.5,60.18649978552896,
To what extent did the music make you feel ,ACTIVE,30MonoWAV/30MonoH4.wav,2,2,1,8,,,,,1,8,24,7,0,9,9,9,,,,,,,,,2,1.0533616280008573,,,111,001,2019_Sep_10_1418,MusicAffectPsychophysiology2019,3.0.5,60.18649978552896,
To what extent did the music make you feel ,ANGRY,30MonoWAV/30MonoH4.wav,2,2,1,8,,,,,1,8,24,7,0,10,10,2,,,,,,,,,1,1.0207203239988303,,,111,001,2019_Sep_10_1418,MusicAffectPsychophysiology2019,3.0.5,60.18649978552896,
To what extent did the music make you feel ,TENDER,30MonoWAV/30MonoH4.wav,2,2,1,8,,,,,1,8,24,7,0,11,11,10,,,,,,,,,1,1.0370026569944457,,,111,001,2019_Sep_10_1418,MusicAffectPsychophysiology2019,3.0.5,60.18649978552896,
,,30MonoWAV/30MonoH4.wav,2,2,1,8,,,,,1,8,24,7,,,,,,,,,,,,,,,,,111,001,2019_Sep_10_1418,MusicAffectPsychophysiology2019,3.0.5,60.18649978552896,
To what extent did the music make you feel ,GUILTY,30MonoWAV/30MonoS1.wav,1,1,3,9,,,,,1,9,25,8,0,0,0,5,,,1,11.000865374000568,1,1.6025642940003308,1,1.4524630719970446,1,1.1812847809997038,,,111,001,2019_Sep_10_1418,MusicAffectPsychophysiology2019,3.0.5,60.18649978552896,
To what extent did the music make you feel ,TENDER,30MonoWAV/30MonoS1.wav,1,1,3,9,,,,,1,9,25,8,0,1,1,10,,,,,,,,,2,1.7518706659975578,,,111,001,2019_Sep_10_1418,MusicAffectPsychophysiology2019,3.0.5,60.18649978552896,
To what extent did the music make you feel ,SAD,30MonoWAV/30MonoS1.wav,1,1,3,9,,,,,1,9,25,8,0,2,2,0,,,,,,,,,3,1.2367720600013854,,,111,001,2019_Sep_10_1418,MusicAffectPsychophysiology2019,3.0.5,60.18649978552896,
To what extent did the music make you feel ,HAPPY,30MonoWAV/30MonoS1.wav,1,1,3,9,,,,,1,9,25,8,0,3,3,6,,,,,,,,,1,1.7848593029993935,,,111,001,2019_Sep_10_1418,MusicAffectPsychophysiology2019,3.0.5,60.18649978552896,
To what extent did the music make you feel ,ALERT,30MonoWAV/30MonoS1.wav,1,1,3,9,,,,,1,9,25,8,0,4,4,8,,,,,,,,,1,0.9535174119955627,,,111,001,2019_Sep_10_1418,MusicAffectPsychophysiology2019,3.0.5,60.18649978552896,
To what extent did the music make you feel ,EXCITED,30MonoWAV/30MonoS1.wav,1,1,3,9,,,,,1,9,25,8,0,5,5,7,,,,,,,,,1,0.8540765679936158,,,111,001,2019_Sep_10_1418,MusicAffectPsychophysiology2019,3.0.5,60.18649978552896,
To what extent did the music make you feel ,ACTIVE,30MonoWAV/30MonoS1.wav,1,1,3,9,,,,,1,9,25,8,0,6,6,9,,,,,,,,,1,1.196043252995878,,,111,001,2019_Sep_10_1418,MusicAffectPsychophysiology2019,3.0.5,60.18649978552896,
To what extent did the music make you feel ,ASHAMED,30MonoWAV/30MonoS1.wav,1,1,3,9,,,,,1,9,25,8,0,7,7,4,,,,,,,,,1,0.15207972699863603,,,111,001,2019_Sep_10_1418,MusicAffectPsychophysiology2019,3.0.5,60.18649978552896,
To what extent did the music make you feel ,ANXIOUS ,30MonoWAV/30MonoS1.wav,1,1,3,9,,,,,1,9,25,8,0,8,8,1,,,,,,,,,1,0.8521090710055432,,,111,001,2019_Sep_10_1418,MusicAffectPsychophysiology2019,3.0.5,60.18649978552896,
To what extent did the music make you feel ,ANGRY,30MonoWAV/30MonoS1.wav,1,1,3,9,,,,,1,9,25,8,0,9,9,2,,,,,,,,,1,1.4351264990036725,,,111,001,2019_Sep_10_1418,MusicAffectPsychophysiology2019,3.0.5,60.18649978552896,
To what extent did the music make you feel ,FRUSTRATED,30MonoWAV/30MonoS1.wav,1,1,3,9,,,,,1,9,25,8,0,10,10,3,,,,,,,,,1,0.47822026400535833,,,111,001,2019_Sep_10_1418,MusicAffectPsychophysiology2019,3.0.5,60.18649978552896,
To what extent did the music make you feel ,SCARED,30MonoWAV/30MonoS1.wav,1,1,3,9,,,,,1,9,25,8,0,11,11,11,,,,,,,,,1,0.5202176120001241,,,111,001,2019_Sep_10_1418,MusicAffectPsychophysiology2019,3.0.5,60.18649978552896,
,,30MonoWAV/30MonoS1.wav,1,1,3,9,,,,,1,9,25,8,,,,,,,,,,,,,,,,,111,001,2019_Sep_10_1418,MusicAffectPsychophysiology2019,3.0.5,60.18649978552896,
To what extent did the music make you feel ,GUILTY,30MonoWAV/30MonoF3.wav,1,2,2,3,,,,,1,10,26,2,0,0,0,5,,,2,4.0352626539970515,1,1.1697079180012224,1,1.1033010800019838,1,1.22420038600103,,,111,001,2019_Sep_10_1418,MusicAffectPsychophysiology2019,3.0.5,60.18649978552896,
To what extent did the music make you feel ,ANGRY,30MonoWAV/30MonoF3.wav,1,2,2,3,,,,,1,10,26,2,0,1,1,2,,,,,,,,,1,2.770177528000204,,,111,001,2019_Sep_10_1418,MusicAffectPsychophysiology2019,3.0.5,60.18649978552896,
To what extent did the music make you feel ,ACTIVE,30MonoWAV/30MonoF3.wav,1,2,2,3,,,,,1,10,26,2,0,2,2,9,,,,,,,,,2,1.2736597569964943,,,111,001,2019_Sep_10_1418,MusicAffectPsychophysiology2019,3.0.5,60.18649978552896,
To what extent did the music make you feel ,ASHAMED,30MonoWAV/30MonoF3.wav,1,2,2,3,,,,,1,10,26,2,0,3,3,4,,,,,,,,,1,0.7870448309986386,,,111,001,2019_Sep_10_1418,MusicAffectPsychophysiology2019,3.0.5,60.18649978552896,
To what extent did the music make you feel ,SCARED,30MonoWAV/30MonoF3.wav,1,2,2,3,,,,,1,10,26,2,0,4,4,11,,,,,,,,,1,1.2868707610032288,,,111,001,2019_Sep_10_1418,MusicAffectPsychophysiology2019,3.0.5,60.18649978552896,
To what extent did the music make you feel ,TENDER,30MonoWAV/30MonoF3.wav,1,2,2,3,,,,,1,10,26,2,0,5,5,10,,,,,,,,,1,1.0498228409996955,,,111,001,2019_Sep_10_1418,MusicAffectPsychophysiology2019,3.0.5,60.18649978552896,
To what extent did the music make you feel ,HAPPY,30MonoWAV/30MonoF3.wav,1,2,2,3,,,,,1,10,26,2,0,6,6,6,,,,,,,,,1,1.1537033159984276,,,111,001,2019_Sep_10_1418,MusicAffectPsychophysiology2019,3.0.5,60.18649978552896,
To what extent did the music make you feel ,EXCITED,30MonoWAV/30MonoF3.wav,1,2,2,3,,,,,1,10,26,2,0,7,7,7,,,,,,,,,1,1.3693866950052325,,,111,001,2019_Sep_10_1418,MusicAffectPsychophysiology2019,3.0.5,60.18649978552896,
To what extent did the music make you feel ,FRUSTRATED,30MonoWAV/30MonoF3.wav,1,2,2,3,,,,,1,10,26,2,0,8,8,3,,,,,,,,,2,1.573639403002744,,,111,001,2019_Sep_10_1418,MusicAffectPsychophysiology2019,3.0.5,60.18649978552896,
To what extent did the music make you feel ,ANXIOUS ,30MonoWAV/30MonoF3.wav,1,2,2,3,,,,,1,10,26,2,0,9,9,1,,,,,,,,,2,1.902237452006375,,,111,001,2019_Sep_10_1418,MusicAffectPsychophysiology2019,3.0.5,60.18649978552896,
To what extent did the music make you feel ,ALERT,30MonoWAV/30MonoF3.wav,1,2,2,3,,,,,1,10,26,2,0,10,10,8,,,,,,,,,2,1.9701060239967774,,,111,001,2019_Sep_10_1418,MusicAffectPsychophysiology2019,3.0.5,60.18649978552896,
To what extent did the music make you feel ,SAD,30MonoWAV/30MonoF3.wav,1,2,2,3,,,,,1,10,26,2,0,11,11,0,,,,,,,,,1,1.6019034820055822,,,111,001,2019_Sep_10_1418,MusicAffectPsychophysiology2019,3.0.5,60.18649978552896,
,,30MonoWAV/30MonoF3.wav,1,2,2,3,,,,,1,10,26,2,,,,,,,,,,,,,,,,,111,001,2019_Sep_10_1418,MusicAffectPsychophysiology2019,3.0.5,60.18649978552896,
To what extent did the music make you feel ,SAD,30MonoWAV/30MonoT1.wav,2,1,4,13,,,,,1,11,27,12,0,0,0,0,,,1,2.5025798630013014,2,2.652223866993154,1,2.7345916480044252,3,2.585408176993951,,,111,001,2019_Sep_10_1418,MusicAffectPsychophysiology2019,3.0.5,60.18649978552896,
To what extent did the music make you feel ,EXCITED,30MonoWAV/30MonoT1.wav,2,1,4,13,,,,,1,11,27,12,0,1,1,7,,,,,,,,,1,1.1170054430040182,,,111,001,2019_Sep_10_1418,MusicAffectPsychophysiology2019,3.0.5,60.18649978552896,
To what extent did the music make you feel ,ACTIVE,30MonoWAV/30MonoT1.wav,2,1,4,13,,,,,1,11,27,12,0,2,2,9,,,,,,,,,1,1.1023734059999697,,,111,001,2019_Sep_10_1418,MusicAffectPsychophysiology2019,3.0.5,60.18649978552896,
To what extent did the music make you feel ,FRUSTRATED,30MonoWAV/30MonoT1.wav,2,1,4,13,,,,,1,11,27,12,0,3,3,3,,,,,,,,,1,0.9187749830016401,,,111,001,2019_Sep_10_1418,MusicAffectPsychophysiology2019,3.0.5,60.18649978552896,
To what extent did the music make you feel ,HAPPY,30MonoWAV/30MonoT1.wav,2,1,4,13,,,,,1,11,27,12,0,4,4,6,,,,,,,,,1,1.852515313999902,,,111,001,2019_Sep_10_1418,MusicAffectPsychophysiology2019,3.0.5,60.18649978552896,
To what extent did the music make you feel ,ANGRY,30MonoWAV/30MonoT1.wav,2,1,4,13,,,,,1,11,27,12,0,5,5,2,,,,,,,,,1,0.9524859680022928,,,111,001,2019_Sep_10_1418,MusicAffectPsychophysiology2019,3.0.5,60.18649978552896,
To what extent did the music make you feel ,ASHAMED,30MonoWAV/30MonoT1.wav,2,1,4,13,,,,,1,11,27,12,0,6,6,4,,,,,,,,,1,0.6832710309972754,,,111,001,2019_Sep_10_1418,MusicAffectPsychophysiology2019,3.0.5,60.18649978552896,
To what extent did the music make you feel ,GUILTY,30MonoWAV/30MonoT1.wav,2,1,4,13,,,,,1,11,27,12,0,7,7,5,,,,,,,,,1,0.6358741619987995,,,111,001,2019_Sep_10_1418,MusicAffectPsychophysiology2019,3.0.5,60.18649978552896,
To what extent did the music make you feel ,ANXIOUS ,30MonoWAV/30MonoT1.wav,2,1,4,13,,,,,1,11,27,12,0,8,8,1,,,,,,,,,1,1.2362163580037304,,,111,001,2019_Sep_10_1418,MusicAffectPsychophysiology2019,3.0.5,60.18649978552896,
To what extent did the music make you feel ,TENDER,30MonoWAV/30MonoT1.wav,2,1,4,13,,,,,1,11,27,12,0,9,9,10,,,,,,,,,3,1.2527575770000112,,,111,001,2019_Sep_10_1418,MusicAffectPsychophysiology2019,3.0.5,60.18649978552896,
To what extent did the music make you feel ,SCARED,30MonoWAV/30MonoT1.wav,2,1,4,13,,,,,1,11,27,12,0,10,10,11,,,,,,,,,1,0.9871447439945769,,,111,001,2019_Sep_10_1418,MusicAffectPsychophysiology2019,3.0.5,60.18649978552896,
To what extent did the music make you feel ,ALERT,30MonoWAV/30MonoT1.wav,2,1,4,13,,,,,1,11,27,12,0,11,11,8,,,,,,,,,1,1.0351578279951354,,,111,001,2019_Sep_10_1418,MusicAffectPsychophysiology2019,3.0.5,60.18649978552896,
,,30MonoWAV/30MonoT1.wav,2,1,4,13,,,,,1,11,27,12,,,,,,,,,,,,,,,,,111,001,2019_Sep_10_1418,MusicAffectPsychophysiology2019,3.0.5,60.18649978552896,
To what extent did the music make you feel ,EXCITED,30MonoWAV/30MonoF1.wav,1,2,2,1,,,,,1,12,28,0,0,0,0,7,,,4,2.285423178000201,2,2.9196102019996033,1,1.4867528789982316,2,1.4936828429999878,,,111,001,2019_Sep_10_1418,MusicAffectPsychophysiology2019,3.0.5,60.18649978552896,
To what extent did the music make you feel ,ACTIVE,30MonoWAV/30MonoF1.wav,1,2,2,1,,,,,1,12,28,0,0,1,1,9,,,,,,,,,3,1.2674554620025447,,,111,001,2019_Sep_10_1418,MusicAffectPsychophysiology2019,3.0.5,60.18649978552896,
To what extent did the music make you feel ,ANGRY,30MonoWAV/30MonoF1.wav,1,2,2,1,,,,,1,12,28,0,0,2,2,2,,,,,,,,,1,1.0533464440013631,,,111,001,2019_Sep_10_1418,MusicAffectPsychophysiology2019,3.0.5,60.18649978552896,
To what extent did the music make you feel ,ASHAMED,30MonoWAV/30MonoF1.wav,1,2,2,1,,,,,1,12,28,0,0,3,3,4,,,,,,,,,1,0.8533362210000632,,,111,001,2019_Sep_10_1418,MusicAffectPsychophysiology2019,3.0.5,60.18649978552896,
To what extent did the music make you feel ,FRUSTRATED,30MonoWAV/30MonoF1.wav,1,2,2,1,,,,,1,12,28,0,0,4,4,3,,,,,,,,,1,0.8093964049985516,,,111,001,2019_Sep_10_1418,MusicAffectPsychophysiology2019,3.0.5,60.18649978552896,
To what extent did the music make you feel ,ALERT,30MonoWAV/30MonoF1.wav,1,2,2,1,,,,,1,12,28,0,0,5,5,8,,,,,,,,,3,1.1862891760029015,,,111,001,2019_Sep_10_1418,MusicAffectPsychophysiology2019,3.0.5,60.18649978552896,
To what extent did the music make you feel ,SCARED,30MonoWAV/30MonoF1.wav,1,2,2,1,,,,,1,12,28,0,0,6,6,11,,,,,,,,,1,1.237079819002247,,,111,001,2019_Sep_10_1418,MusicAffectPsychophysiology2019,3.0.5,60.18649978552896,
To what extent did the music make you feel ,SAD,30MonoWAV/30MonoF1.wav,1,2,2,1,,,,,1,12,28,0,0,7,7,0,,,,,,,,,1,1.0194687579933088,,,111,001,2019_Sep_10_1418,MusicAffectPsychophysiology2019,3.0.5,60.18649978552896,
To what extent did the music make you feel ,HAPPY,30MonoWAV/30MonoF1.wav,1,2,2,1,,,,,1,12,28,0,0,8,8,6,,,,,,,,,1,1.0706360299955122,,,111,001,2019_Sep_10_1418,MusicAffectPsychophysiology2019,3.0.5,60.18649978552896,
To what extent did the music make you feel ,ANXIOUS ,30MonoWAV/30MonoF1.wav,1,2,2,1,,,,,1,12,28,0,0,9,9,1,,,,,,,,,2,1.8520435289974557,,,111,001,2019_Sep_10_1418,MusicAffectPsychophysiology2019,3.0.5,60.18649978552896,
To what extent did the music make you feel ,TENDER,30MonoWAV/30MonoF1.wav,1,2,2,1,,,,,1,12,28,0,0,10,10,10,,,,,,,,,1,1.0032796160012367,,,111,001,2019_Sep_10_1418,MusicAffectPsychophysiology2019,3.0.5,60.18649978552896,
To what extent did the music make you feel ,GUILTY,30MonoWAV/30MonoF1.wav,1,2,2,1,,,,,1,12,28,0,0,11,11,5,,,,,,,,,1,0.8687853450028342,,,111,001,2019_Sep_10_1418,MusicAffectPsychophysiology2019,3.0.5,60.18649978552896,
,,30MonoWAV/30MonoF1.wav,1,2,2,1,,,,,1,12,28,0,,,,,,,,,,,,,,,,,111,001,2019_Sep_10_1418,MusicAffectPsychophysiology2019,3.0.5,60.18649978552896,
To what extent did the music make you feel ,ACTIVE,30MonoWAV/30MonoS3.wav,1,1,3,11,,,,,1,13,29,10,0,0,0,9,,,1,3.483912296993367,1,0.8516250050015515,1,1.7516378669970436,1,2.2187519340004656,,,111,001,2019_Sep_10_1418,MusicAffectPsychophysiology2019,3.0.5,60.18649978552896,
To what extent did the music make you feel ,GUILTY,30MonoWAV/30MonoS3.wav,1,1,3,11,,,,,1,13,29,10,0,1,1,5,,,,,,,,,1,0.718733779998729,,,111,001,2019_Sep_10_1418,MusicAffectPsychophysiology2019,3.0.5,60.18649978552896,
To what extent did the music make you feel ,ANXIOUS ,30MonoWAV/30MonoS3.wav,1,1,3,11,,,,,1,13,29,10,0,2,2,1,,,,,,,,,2,0.8862510589970043,,,111,001,2019_Sep_10_1418,MusicAffectPsychophysiology2019,3.0.5,60.18649978552896,
To what extent did the music make you feel ,TENDER,30MonoWAV/30MonoS3.wav,1,1,3,11,,,,,1,13,29,10,0,3,3,10,,,,,,,,,1,1.833808889001375,,,111,001,2019_Sep_10_1418,MusicAffectPsychophysiology2019,3.0.5,60.18649978552896,
To what extent did the music make you feel ,FRUSTRATED,30MonoWAV/30MonoS3.wav,1,1,3,11,,,,,1,13,29,10,0,4,4,3,,,,,,,,,1,0.7353542569981073,,,111,001,2019_Sep_10_1418,MusicAffectPsychophysiology2019,3.0.5,60.18649978552896,
To what extent did the music make you feel ,SCARED,30MonoWAV/30MonoS3.wav,1,1,3,11,,,,,1,13,29,10,0,5,5,11,,,,,,,,,1,1.385749916997156,,,111,001,2019_Sep_10_1418,MusicAffectPsychophysiology2019,3.0.5,60.18649978552896,
To what extent did the music make you feel ,SAD,30MonoWAV/30MonoS3.wav,1,1,3,11,,,,,1,13,29,10,0,6,6,0,,,,,,,,,3,1.1701538430061191,,,111,001,2019_Sep_10_1418,MusicAffectPsychophysiology2019,3.0.5,60.18649978552896,
To what extent did the music make you feel ,EXCITED,30MonoWAV/30MonoS3.wav,1,1,3,11,,,,,1,13,29,10,0,7,7,7,,,,,,,,,1,0.8875700979988324,,,111,001,2019_Sep_10_1418,MusicAffectPsychophysiology2019,3.0.5,60.18649978552896,
To what extent did the music make you feel ,HAPPY,30MonoWAV/30MonoS3.wav,1,1,3,11,,,,,1,13,29,10,0,8,8,6,,,,,,,,,1,0.7691452029976062,,,111,001,2019_Sep_10_1418,MusicAffectPsychophysiology2019,3.0.5,60.18649978552896,
To what extent did the music make you feel ,ALERT,30MonoWAV/30MonoS3.wav,1,1,3,11,,,,,1,13,29,10,0,9,9,8,,,,,,,,,1,0.88638371599518,,,111,001,2019_Sep_10_1418,MusicAffectPsychophysiology2019,3.0.5,60.18649978552896,
To what extent did the music make you feel ,ASHAMED,30MonoWAV/30MonoS3.wav,1,1,3,11,,,,,1,13,29,10,0,10,10,4,,,,,,,,,1,0.7694112480021431,,,111,001,2019_Sep_10_1418,MusicAffectPsychophysiology2019,3.0.5,60.18649978552896,
To what extent did the music make you feel ,ANGRY,30MonoWAV/30MonoS3.wav,1,1,3,11,,,,,1,13,29,10,0,11,11,2,,,,,,,,,1,0.8358768269972643,,,111,001,2019_Sep_10_1418,MusicAffectPsychophysiology2019,3.0.5,60.18649978552896,
,,30MonoWAV/30MonoS3.wav,1,1,3,11,,,,,1,13,29,10,,,,,,,,,,,,,,,,,111,001,2019_Sep_10_1418,MusicAffectPsychophysiology2019,3.0.5,60.18649978552896,
To what extent did the music make you feel ,ANXIOUS ,30MonoWAV/30MonoT3.wav,2,1,4,15,,,,,1,14,30,14,0,0,0,1,,,2,2.766946094998275,2,1.8019233500017435,2,2.7665042790031293,1,1.8967675609965227,,,111,001,2019_Sep_10_1418,MusicAffectPsychophysiology2019,3.0.5,60.18649978552896,
To what extent did the music make you feel ,TENDER,30MonoWAV/30MonoT3.wav,2,1,4,15,,,,,1,14,30,14,0,1,1,10,,,,,,,,,2,2.518426028000249,,,111,001,2019_Sep_10_1418,MusicAffectPsychophysiology2019,3.0.5,60.18649978552896,
To what extent did the music make you feel ,FRUSTRATED,30MonoWAV/30MonoT3.wav,2,1,4,15,,,,,1,14,30,14,0,2,2,3,,,,,,,,,1,0.8694991400043364,,,111,001,2019_Sep_10_1418,MusicAffectPsychophysiology2019,3.0.5,60.18649978552896,
To what extent did the music make you feel ,ACTIVE,30MonoWAV/30MonoT3.wav,2,1,4,15,,,,,1,14,30,14,0,3,3,9,,,,,,,,,1,1.2022577870011446,,,111,001,2019_Sep_10_1418,MusicAffectPsychophysiology2019,3.0.5,60.18649978552896,
To what extent did the music make you feel ,GUILTY,30MonoWAV/30MonoT3.wav,2,1,4,15,,,,,1,14,30,14,0,4,4,5,,,,,,,,,1,0.7366756609990261,,,111,001,2019_Sep_10_1418,MusicAffectPsychophysiology2019,3.0.5,60.18649978552896,
To what extent did the music make you feel ,HAPPY,30MonoWAV/30MonoT3.wav,2,1,4,15,,,,,1,14,30,14,0,5,5,6,,,,,,,,,2,1.1695877479942283,,,111,001,2019_Sep_10_1418,MusicAffectPsychophysiology2019,3.0.5,60.18649978552896,
To what extent did the music make you feel ,ANGRY,30MonoWAV/30MonoT3.wav,2,1,4,15,,,,,1,14,30,14,0,6,6,2,,,,,,,,,1,3.334931007993873,,,111,001,2019_Sep_10_1418,MusicAffectPsychophysiology2019,3.0.5,60.18649978552896,
To what extent did the music make you feel ,SCARED,30MonoWAV/30MonoT3.wav,2,1,4,15,,,,,1,14,30,14,0,7,7,11,,,,,,,,,1,0.7545189879965619,,,111,001,2019_Sep_10_1418,MusicAffectPsychophysiology2019,3.0.5,60.18649978552896,
To what extent did the music make you feel ,ASHAMED,30MonoWAV/30MonoT3.wav,2,1,4,15,,,,,1,14,30,14,0,8,8,4,,,,,,,,,1,0.7365917999995872,,,111,001,2019_Sep_10_1418,MusicAffectPsychophysiology2019,3.0.5,60.18649978552896,
To what extent did the music make you feel ,ALERT,30MonoWAV/30MonoT3.wav,2,1,4,15,,,,,1,14,30,14,0,9,9,8,,,,,,,,,1,2.5015277170023182,,,111,001,2019_Sep_10_1418,MusicAffectPsychophysiology2019,3.0.5,60.18649978552896,
To what extent did the music make you feel ,SAD,30MonoWAV/30MonoT3.wav,2,1,4,15,,,,,1,14,30,14,0,10,10,0,,,,,,,,,3,7.451802721996501,,,111,001,2019_Sep_10_1418,MusicAffectPsychophysiology2019,3.0.5,60.18649978552896,
To what extent did the music make you feel ,EXCITED,30MonoWAV/30MonoT3.wav,2,1,4,15,,,,,1,14,30,14,0,11,11,7,,,,,,,,,1,2.0528961759991944,,,111,001,2019_Sep_10_1418,MusicAffectPsychophysiology2019,3.0.5,60.18649978552896,
,,30MonoWAV/30MonoT3.wav,2,1,4,15,,,,,1,14,30,14,,,,,,,,,,,,,,,,,111,001,2019_Sep_10_1418,MusicAffectPsychophysiology2019,3.0.5,60.18649978552896,
To what extent did the music make you feel ,ANXIOUS ,30MonoWAV/30MonoH1.wav,2,2,1,5,,,,,1,15,31,4,0,0,0,1,,,3,3.103172975999769,2,1.0340834250018816,2,1.6029739339937805,1,1.4879482030009967,,,111,001,2019_Sep_10_1418,MusicAffectPsychophysiology2019,3.0.5,60.18649978552896,
To what extent did the music make you feel ,GUILTY,30MonoWAV/30MonoH1.wav,2,2,1,5,,,,,1,15,31,4,0,1,1,5,,,,,,,,,1,0.6669529629944009,,,111,001,2019_Sep_10_1418,MusicAffectPsychophysiology2019,3.0.5,60.18649978552896,
To what extent did the music make you feel ,SAD,30MonoWAV/30MonoH1.wav,2,2,1,5,,,,,1,15,31,4,0,2,2,0,,,,,,,,,1,2.4194878269991023,,,111,001,2019_Sep_10_1418,MusicAffectPsychophysiology2019,3.0.5,60.18649978552896,
To what extent did the music make you feel ,ANGRY,30MonoWAV/30MonoH1.wav,2,2,1,5,,,,,1,15,31,4,0,3,3,2,,,,,,,,,1,0.9198073829975328,,,111,001,2019_Sep_10_1418,MusicAffectPsychophysiology2019,3.0.5,60.18649978552896,
To what extent did the music make you feel ,ACTIVE,30MonoWAV/30MonoH1.wav,2,2,1,5,,,,,1,15,31,4,0,4,4,9,,,,,,,,,2,1.0361435589948087,,,111,001,2019_Sep_10_1418,MusicAffectPsychophysiology2019,3.0.5,60.18649978552896,
To what extent did the music make you feel ,ASHAMED,30MonoWAV/30MonoH1.wav,2,2,1,5,,,,,1,15,31,4,0,5,5,4,,,,,,,,,1,0.7688751030000276,,,111,001,2019_Sep_10_1418,MusicAffectPsychophysiology2019,3.0.5,60.18649978552896,
To what extent did the music make you feel ,SCARED,30MonoWAV/30MonoH1.wav,2,2,1,5,,,,,1,15,31,4,0,6,6,11,,,,,,,,,1,0.9676476629974786,,,111,001,2019_Sep_10_1418,MusicAffectPsychophysiology2019,3.0.5,60.18649978552896,
To what extent did the music make you feel ,TENDER,30MonoWAV/30MonoH1.wav,2,2,1,5,,,,,1,15,31,4,0,7,7,10,,,,,,,,,1,0.9358883530003368,,,111,001,2019_Sep_10_1418,MusicAffectPsychophysiology2019,3.0.5,60.18649978552896,
To what extent did the music make you feel ,HAPPY,30MonoWAV/30MonoH1.wav,2,2,1,5,,,,,1,15,31,4,0,8,8,6,,,,,,,,,2,1.2021918559985352,,,111,001,2019_Sep_10_1418,MusicAffectPsychophysiology2019,3.0.5,60.18649978552896,
To what extent did the music make you feel ,EXCITED,30MonoWAV/30MonoH1.wav,2,2,1,5,,,,,1,15,31,4,0,9,9,7,,,,,,,,,1,1.0687441879999824,,,111,001,2019_Sep_10_1418,MusicAffectPsychophysiology2019,3.0.5,60.18649978552896,
To what extent did the music make you feel ,FRUSTRATED,30MonoWAV/30MonoH1.wav,2,2,1,5,,,,,1,15,31,4,0,10,10,3,,,,,,,,,1,0.951030718999391,,,111,001,2019_Sep_10_1418,MusicAffectPsychophysiology2019,3.0.5,60.18649978552896,
To what extent did the music make you feel ,ALERT,30MonoWAV/30MonoH1.wav,2,2,1,5,,,,,1,15,31,4,0,11,11,8,,,,,,,,,3,2.4520103830000153,,,111,001,2019_Sep_10_1418,MusicAffectPsychophysiology2019,3.0.5,60.18649978552896,
,,30MonoWAV/30MonoH1.wav,2,2,1,5,,,,,1,15,31,4,,,,,,,,,,,,,,,,,111,001,2019_Sep_10_1418,MusicAffectPsychophysiology2019,3.0.5,60.18649978552896,
,,,,,,,,,,,,,,,,,,,,,,,,,,,,,space,102.20804794900323,111,001,2019_Sep_10_1418,MusicAffectPsychophysiology2019,3.0.5,60.18649978552896,
