Instruction,Word,song,valence,arousal,affectcat,songmark,pracwords.thisRepN,pracwords.thisTrialN,pracwords.thisN,pracwords.thisIndex,songtrials.thisRepN,songtrials.thisTrialN,songtrials.thisN,songtrials.thisIndex,words.thisRepN,words.thisTrialN,words.thisN,words.thisIndex,begin.keys,begin.rt,arousalkey.keys,arousalkey.rt,valencekey.keys,valencekey.rt,likekey.keys,likekey.rt,WordResponse.keys,WordResponse.rt,key_resp_2.keys,key_resp_2.rt,participant,session,date,expName,psychopyVersion,frameRate,
,,,,,,,,,,,,,,,,,,,space,1.9530362720033736,,,,,,,,,,,112,001,2019_Sep_11_1118,MusicAffectPsychophysiology2019,3.0.5,59.68091847609726,
,,,,,,,,,,,,,,,,,,,,,2,7.451621047002845,,,,,,,,,112,001,2019_Sep_11_1118,MusicAffectPsychophysiology2019,3.0.5,59.68091847609726,
,,,,,,,,,,,,,,,,,,,,,,,2,2.568750975005969,,,,,,,112,001,2019_Sep_11_1118,MusicAffectPsychophysiology2019,3.0.5,59.68091847609726,
,,,,,,,,,,,,,,,,,,,,,,,,,4,3.7355681669941987,,,,,112,001,2019_Sep_11_1118,MusicAffectPsychophysiology2019,3.0.5,59.68091847609726,
To what extent did the music make you feel ,ANXIOUS ,,,,,,0,0,0,1,,,,,,,,,,,,,,,,,1,3.878604910998547,,,112,001,2019_Sep_11_1118,MusicAffectPsychophysiology2019,3.0.5,59.68091847609726,
To what extent did the music make you feel ,EXCITED,,,,,,0,1,1,7,,,,,,,,,,,,,,,,,1,2.159913031005999,,,112,001,2019_Sep_11_1118,MusicAffectPsychophysiology2019,3.0.5,59.68091847609726,
To what extent did the music make you feel ,ACTIVE,,,,,,0,2,2,9,,,,,,,,,,,,,,,,,2,2.3520621659990866,,,112,001,2019_Sep_11_1118,MusicAffectPsychophysiology2019,3.0.5,59.68091847609726,
To what extent did the music make you feel ,HAPPY,,,,,,0,3,3,6,,,,,,,,,,,,,,,,,4,2.352917943004286,,,112,001,2019_Sep_11_1118,MusicAffectPsychophysiology2019,3.0.5,59.68091847609726,
To what extent did the music make you feel ,ANGRY,,,,,,0,4,4,2,,,,,,,,,,,,,,,,,1,1.2773132389993407,,,112,001,2019_Sep_11_1118,MusicAffectPsychophysiology2019,3.0.5,59.68091847609726,
To what extent did the music make you feel ,TENDER,,,,,,0,5,5,10,,,,,,,,,,,,,,,,,2,3.6864491369997268,,,112,001,2019_Sep_11_1118,MusicAffectPsychophysiology2019,3.0.5,59.68091847609726,
To what extent did the music make you feel ,ALERT,,,,,,0,6,6,8,,,,,,,,,,,,,,,,,1,4.101783324003918,,,112,001,2019_Sep_11_1118,MusicAffectPsychophysiology2019,3.0.5,59.68091847609726,
To what extent did the music make you feel ,SCARED,,,,,,0,7,7,11,,,,,,,,,,,,,,,,,1,1.0663548899974558,,,112,001,2019_Sep_11_1118,MusicAffectPsychophysiology2019,3.0.5,59.68091847609726,
To what extent did the music make you feel ,GUILTY,,,,,,0,8,8,5,,,,,,,,,,,,,,,,,1,0.7522572230009246,,,112,001,2019_Sep_11_1118,MusicAffectPsychophysiology2019,3.0.5,59.68091847609726,
To what extent did the music make you feel ,FRUSTRATED,,,,,,0,9,9,3,,,,,,,,,,,,,,,,,1,1.0196055679989513,,,112,001,2019_Sep_11_1118,MusicAffectPsychophysiology2019,3.0.5,59.68091847609726,
To what extent did the music make you feel ,ASHAMED,,,,,,0,10,10,4,,,,,,,,,,,,,,,,,1,1.0026323909987696,,,112,001,2019_Sep_11_1118,MusicAffectPsychophysiology2019,3.0.5,59.68091847609726,
To what extent did the music make you feel ,SAD,,,,,,0,11,11,0,,,,,,,,,,,,,,,,,1,0.7522583719983231,,,112,001,2019_Sep_11_1118,MusicAffectPsychophysiology2019,3.0.5,59.68091847609726,
To what extent did the music make you feel ,ANGRY,30MonoWAV/30MonoT3.wav,2,1,4,15,,,,,0,0,0,14,0,0,0,2,,,2,3.5021005699964007,5,3.5682987039981526,4,2.168399229994975,1,2.4200414059960167,,,112,001,2019_Sep_11_1118,MusicAffectPsychophysiology2019,3.0.5,59.68091847609726,
To what extent did the music make you feel ,GUILTY,30MonoWAV/30MonoT3.wav,2,1,4,15,,,,,0,0,0,14,0,1,1,5,,,,,,,,,1,0.6357699939981103,,,112,001,2019_Sep_11_1118,MusicAffectPsychophysiology2019,3.0.5,59.68091847609726,
To what extent did the music make you feel ,SAD,30MonoWAV/30MonoT3.wav,2,1,4,15,,,,,0,0,0,14,0,2,2,0,,,,,,,,,1,0.7525004490016727,,,112,001,2019_Sep_11_1118,MusicAffectPsychophysiology2019,3.0.5,59.68091847609726,
To what extent did the music make you feel ,ASHAMED,30MonoWAV/30MonoT3.wav,2,1,4,15,,,,,0,0,0,14,0,3,3,4,,,,,,,,,1,0.6523563619994093,,,112,001,2019_Sep_11_1118,MusicAffectPsychophysiology2019,3.0.5,59.68091847609726,
To what extent did the music make you feel ,HAPPY,30MonoWAV/30MonoT3.wav,2,1,4,15,,,,,0,0,0,14,0,4,4,6,,,,,,,,,4,2.38577315400471,,,112,001,2019_Sep_11_1118,MusicAffectPsychophysiology2019,3.0.5,59.68091847609726,
To what extent did the music make you feel ,ALERT,30MonoWAV/30MonoT3.wav,2,1,4,15,,,,,0,0,0,14,0,5,5,8,,,,,,,,,2,1.7352620019955793,,,112,001,2019_Sep_11_1118,MusicAffectPsychophysiology2019,3.0.5,59.68091847609726,
To what extent did the music make you feel ,ANXIOUS ,30MonoWAV/30MonoT3.wav,2,1,4,15,,,,,0,0,0,14,0,6,6,1,,,,,,,,,1,0.9687385200013523,,,112,001,2019_Sep_11_1118,MusicAffectPsychophysiology2019,3.0.5,59.68091847609726,
To what extent did the music make you feel ,SCARED,30MonoWAV/30MonoT3.wav,2,1,4,15,,,,,0,0,0,14,0,7,7,11,,,,,,,,,1,0.8201119510049466,,,112,001,2019_Sep_11_1118,MusicAffectPsychophysiology2019,3.0.5,59.68091847609726,
To what extent did the music make you feel ,EXCITED,30MonoWAV/30MonoT3.wav,2,1,4,15,,,,,0,0,0,14,0,8,8,7,,,,,,,,,2,2.352539474006335,,,112,001,2019_Sep_11_1118,MusicAffectPsychophysiology2019,3.0.5,59.68091847609726,
To what extent did the music make you feel ,ACTIVE,30MonoWAV/30MonoT3.wav,2,1,4,15,,,,,0,0,0,14,0,9,9,9,,,,,,,,,2,1.6356737809983315,,,112,001,2019_Sep_11_1118,MusicAffectPsychophysiology2019,3.0.5,59.68091847609726,
To what extent did the music make you feel ,TENDER,30MonoWAV/30MonoT3.wav,2,1,4,15,,,,,0,0,0,14,0,10,10,10,,,,,,,,,2,0.8023909309995361,,,112,001,2019_Sep_11_1118,MusicAffectPsychophysiology2019,3.0.5,59.68091847609726,
To what extent did the music make you feel ,FRUSTRATED,30MonoWAV/30MonoT3.wav,2,1,4,15,,,,,0,0,0,14,0,11,11,3,,,,,,,,,1,3.016872885003977,,,112,001,2019_Sep_11_1118,MusicAffectPsychophysiology2019,3.0.5,59.68091847609726,
,,30MonoWAV/30MonoT3.wav,2,1,4,15,,,,,0,0,0,14,,,,,,,,,,,,,,,,,112,001,2019_Sep_11_1118,MusicAffectPsychophysiology2019,3.0.5,59.68091847609726,
To what extent did the music make you feel ,GUILTY,30MonoWAV/30MonoF4.wav,1,2,2,4,,,,,0,1,1,3,0,0,0,5,,,4,3.90011715899891,1,2.936093192998669,3,3.636236430000281,1,1.1122318679990713,,,112,001,2019_Sep_11_1118,MusicAffectPsychophysiology2019,3.0.5,59.68091847609726,
To what extent did the music make you feel ,HAPPY,30MonoWAV/30MonoF4.wav,1,2,2,4,,,,,0,1,1,3,0,1,1,6,,,,,,,,,1,1.6850299599973368,,,112,001,2019_Sep_11_1118,MusicAffectPsychophysiology2019,3.0.5,59.68091847609726,
To what extent did the music make you feel ,SAD,30MonoWAV/30MonoF4.wav,1,2,2,4,,,,,0,1,1,3,0,2,2,0,,,,,,,,,1,1.7355723299988313,,,112,001,2019_Sep_11_1118,MusicAffectPsychophysiology2019,3.0.5,59.68091847609726,
To what extent did the music make you feel ,ACTIVE,30MonoWAV/30MonoF4.wav,1,2,2,4,,,,,0,1,1,3,0,3,3,9,,,,,,,,,4,2.4517695609974908,,,112,001,2019_Sep_11_1118,MusicAffectPsychophysiology2019,3.0.5,59.68091847609726,
To what extent did the music make you feel ,ASHAMED,30MonoWAV/30MonoF4.wav,1,2,2,4,,,,,0,1,1,3,0,4,4,4,,,,,,,,,1,1.2190661899949191,,,112,001,2019_Sep_11_1118,MusicAffectPsychophysiology2019,3.0.5,59.68091847609726,
To what extent did the music make you feel ,EXCITED,30MonoWAV/30MonoF4.wav,1,2,2,4,,,,,0,1,1,3,0,5,5,7,,,,,,,,,4,1.669317249004962,,,112,001,2019_Sep_11_1118,MusicAffectPsychophysiology2019,3.0.5,59.68091847609726,
To what extent did the music make you feel ,FRUSTRATED,30MonoWAV/30MonoF4.wav,1,2,2,4,,,,,0,1,1,3,0,6,6,3,,,,,,,,,1,2.059415772004286,,,112,001,2019_Sep_11_1118,MusicAffectPsychophysiology2019,3.0.5,59.68091847609726,
To what extent did the music make you feel ,ANGRY,30MonoWAV/30MonoF4.wav,1,2,2,4,,,,,0,1,1,3,0,7,7,2,,,,,,,,,1,1.766852882996318,,,112,001,2019_Sep_11_1118,MusicAffectPsychophysiology2019,3.0.5,59.68091847609726,
To what extent did the music make you feel ,ANXIOUS ,30MonoWAV/30MonoF4.wav,1,2,2,4,,,,,0,1,1,3,0,8,8,1,,,,,,,,,2,1.667952529998729,,,112,001,2019_Sep_11_1118,MusicAffectPsychophysiology2019,3.0.5,59.68091847609726,
To what extent did the music make you feel ,ALERT,30MonoWAV/30MonoF4.wav,1,2,2,4,,,,,0,1,1,3,0,9,9,8,,,,,,,,,4,2.1504388229950564,,,112,001,2019_Sep_11_1118,MusicAffectPsychophysiology2019,3.0.5,59.68091847609726,
To what extent did the music make you feel ,TENDER,30MonoWAV/30MonoF4.wav,1,2,2,4,,,,,0,1,1,3,0,10,10,10,,,,,,,,,1,1.053429858002346,,,112,001,2019_Sep_11_1118,MusicAffectPsychophysiology2019,3.0.5,59.68091847609726,
To what extent did the music make you feel ,SCARED,30MonoWAV/30MonoF4.wav,1,2,2,4,,,,,0,1,1,3,0,11,11,11,,,,,,,,,2,3.7523106200023904,,,112,001,2019_Sep_11_1118,MusicAffectPsychophysiology2019,3.0.5,59.68091847609726,
,,30MonoWAV/30MonoF4.wav,1,2,2,4,,,,,0,1,1,3,,,,,,,,,,,,,,,,,112,001,2019_Sep_11_1118,MusicAffectPsychophysiology2019,3.0.5,59.68091847609726,
To what extent did the music make you feel ,ASHAMED,30MonoWAV/30MonoH4.wav,2,2,1,8,,,,,0,2,2,7,0,0,0,4,,,4,3.0026363729994046,5,2.6503647589997854,4,2.535930311001721,1,1.4356269229974714,,,112,001,2019_Sep_11_1118,MusicAffectPsychophysiology2019,3.0.5,59.68091847609726,
To what extent did the music make you feel ,TENDER,30MonoWAV/30MonoH4.wav,2,2,1,8,,,,,0,2,2,7,0,1,1,10,,,,,,,,,1,0.06894286600436317,,,112,001,2019_Sep_11_1118,MusicAffectPsychophysiology2019,3.0.5,59.68091847609726,
To what extent did the music make you feel ,ALERT,30MonoWAV/30MonoH4.wav,2,2,1,8,,,,,0,2,2,7,0,2,2,8,,,,,,,,,4,5.002471829997376,,,112,001,2019_Sep_11_1118,MusicAffectPsychophysiology2019,3.0.5,59.68091847609726,
To what extent did the music make you feel ,EXCITED,30MonoWAV/30MonoH4.wav,2,2,1,8,,,,,0,2,2,7,0,3,3,7,,,,,,,,,4,2.085902268998325,,,112,001,2019_Sep_11_1118,MusicAffectPsychophysiology2019,3.0.5,59.68091847609726,
To what extent did the music make you feel ,ACTIVE,30MonoWAV/30MonoH4.wav,2,2,1,8,,,,,0,2,2,7,0,4,4,9,,,,,,,,,4,0.6346937359994627,,,112,001,2019_Sep_11_1118,MusicAffectPsychophysiology2019,3.0.5,59.68091847609726,
To what extent did the music make you feel ,HAPPY,30MonoWAV/30MonoH4.wav,2,2,1,8,,,,,0,2,2,7,0,5,5,6,,,,,,,,,4,0.6851306919998024,,,112,001,2019_Sep_11_1118,MusicAffectPsychophysiology2019,3.0.5,59.68091847609726,
To what extent did the music make you feel ,SAD,30MonoWAV/30MonoH4.wav,2,2,1,8,,,,,0,2,2,7,0,6,6,0,,,,,,,,,1,0.9033471400034614,,,112,001,2019_Sep_11_1118,MusicAffectPsychophysiology2019,3.0.5,59.68091847609726,
To what extent did the music make you feel ,SCARED,30MonoWAV/30MonoH4.wav,2,2,1,8,,,,,0,2,2,7,0,7,7,11,,,,,,,,,1,0.8695677969953977,,,112,001,2019_Sep_11_1118,MusicAffectPsychophysiology2019,3.0.5,59.68091847609726,
To what extent did the music make you feel ,ANGRY,30MonoWAV/30MonoH4.wav,2,2,1,8,,,,,0,2,2,7,0,8,8,2,,,,,,,,,1,1.30273764100275,,,112,001,2019_Sep_11_1118,MusicAffectPsychophysiology2019,3.0.5,59.68091847609726,
To what extent did the music make you feel ,ANXIOUS ,30MonoWAV/30MonoH4.wav,2,2,1,8,,,,,0,2,2,7,0,9,9,1,,,,,,,,,1,1.149391219005338,,,112,001,2019_Sep_11_1118,MusicAffectPsychophysiology2019,3.0.5,59.68091847609726,
To what extent did the music make you feel ,GUILTY,30MonoWAV/30MonoH4.wav,2,2,1,8,,,,,0,2,2,7,0,10,10,5,,,,,,,,,1,0.6706860620033694,,,112,001,2019_Sep_11_1118,MusicAffectPsychophysiology2019,3.0.5,59.68091847609726,
To what extent did the music make you feel ,FRUSTRATED,30MonoWAV/30MonoH4.wav,2,2,1,8,,,,,0,2,2,7,0,11,11,3,,,,,,,,,1,0.886537855003553,,,112,001,2019_Sep_11_1118,MusicAffectPsychophysiology2019,3.0.5,59.68091847609726,
,,30MonoWAV/30MonoH4.wav,2,2,1,8,,,,,0,2,2,7,,,,,,,,,,,,,,,,,112,001,2019_Sep_11_1118,MusicAffectPsychophysiology2019,3.0.5,59.68091847609726,
To what extent did the music make you feel ,ANXIOUS ,30MonoWAV/30MonoF1.wav,1,2,2,1,,,,,0,3,3,0,0,0,0,1,,,3,5.052325065000332,1,1.7195619810008793,1,2.266680718996213,2,1.4147533409995958,,,112,001,2019_Sep_11_1118,MusicAffectPsychophysiology2019,3.0.5,59.68091847609726,
To what extent did the music make you feel ,TENDER,30MonoWAV/30MonoF1.wav,1,2,2,1,,,,,0,3,3,0,0,1,1,10,,,,,,,,,1,0.9858979330019793,,,112,001,2019_Sep_11_1118,MusicAffectPsychophysiology2019,3.0.5,59.68091847609726,
To what extent did the music make you feel ,ACTIVE,30MonoWAV/30MonoF1.wav,1,2,2,1,,,,,0,3,3,0,0,2,2,9,,,,,,,,,4,1.6357373930004542,,,112,001,2019_Sep_11_1118,MusicAffectPsychophysiology2019,3.0.5,59.68091847609726,
To what extent did the music make you feel ,SCARED,30MonoWAV/30MonoF1.wav,1,2,2,1,,,,,0,3,3,0,0,3,3,11,,,,,,,,,1,1.55291089900129,,,112,001,2019_Sep_11_1118,MusicAffectPsychophysiology2019,3.0.5,59.68091847609726,
To what extent did the music make you feel ,SAD,30MonoWAV/30MonoF1.wav,1,2,2,1,,,,,0,3,3,0,0,4,4,0,,,,,,,,,1,1.0198531280038878,,,112,001,2019_Sep_11_1118,MusicAffectPsychophysiology2019,3.0.5,59.68091847609726,
To what extent did the music make you feel ,FRUSTRATED,30MonoWAV/30MonoF1.wav,1,2,2,1,,,,,0,3,3,0,0,5,5,3,,,,,,,,,1,0.8482099329994526,,,112,001,2019_Sep_11_1118,MusicAffectPsychophysiology2019,3.0.5,59.68091847609726,
To what extent did the music make you feel ,ALERT,30MonoWAV/30MonoF1.wav,1,2,2,1,,,,,0,3,3,0,0,6,6,8,,,,,,,,,4,1.4340225960040698,,,112,001,2019_Sep_11_1118,MusicAffectPsychophysiology2019,3.0.5,59.68091847609726,
To what extent did the music make you feel ,ASHAMED,30MonoWAV/30MonoF1.wav,1,2,2,1,,,,,0,3,3,0,0,7,7,4,,,,,,,,,1,0.9695290759991622,,,112,001,2019_Sep_11_1118,MusicAffectPsychophysiology2019,3.0.5,59.68091847609726,
To what extent did the music make you feel ,HAPPY,30MonoWAV/30MonoF1.wav,1,2,2,1,,,,,0,3,3,0,0,8,8,6,,,,,,,,,1,1.2329271229973529,,,112,001,2019_Sep_11_1118,MusicAffectPsychophysiology2019,3.0.5,59.68091847609726,
To what extent did the music make you feel ,GUILTY,30MonoWAV/30MonoF1.wav,1,2,2,1,,,,,0,3,3,0,0,9,9,5,,,,,,,,,1,0.6697100509991287,,,112,001,2019_Sep_11_1118,MusicAffectPsychophysiology2019,3.0.5,59.68091847609726,
To what extent did the music make you feel ,ANGRY,30MonoWAV/30MonoF1.wav,1,2,2,1,,,,,0,3,3,0,0,10,10,2,,,,,,,,,2,2.9515804359980393,,,112,001,2019_Sep_11_1118,MusicAffectPsychophysiology2019,3.0.5,59.68091847609726,
To what extent did the music make you feel ,EXCITED,30MonoWAV/30MonoF1.wav,1,2,2,1,,,,,0,3,3,0,0,11,11,7,,,,,,,,,3,2.069149337003182,,,112,001,2019_Sep_11_1118,MusicAffectPsychophysiology2019,3.0.5,59.68091847609726,
,,30MonoWAV/30MonoF1.wav,1,2,2,1,,,,,0,3,3,0,,,,,,,,,,,,,,,,,112,001,2019_Sep_11_1118,MusicAffectPsychophysiology2019,3.0.5,59.68091847609726,
To what extent did the music make you feel ,HAPPY,30MonoWAV/30MonoH3.wav,2,2,1,7,,,,,0,4,4,6,0,0,0,6,,,4,3.735603702996741,4,1.9864694189964212,3,7.2518410720003885,4,1.7897683919945848,,,112,001,2019_Sep_11_1118,MusicAffectPsychophysiology2019,3.0.5,59.68091847609726,
To what extent did the music make you feel ,SAD,30MonoWAV/30MonoH3.wav,2,2,1,7,,,,,0,4,4,6,0,1,1,0,,,,,,,,,1,0.8012610529985977,,,112,001,2019_Sep_11_1118,MusicAffectPsychophysiology2019,3.0.5,59.68091847609726,
To what extent did the music make you feel ,ACTIVE,30MonoWAV/30MonoH3.wav,2,2,1,7,,,,,0,4,4,6,0,2,2,9,,,,,,,,,4,0.851934837999579,,,112,001,2019_Sep_11_1118,MusicAffectPsychophysiology2019,3.0.5,59.68091847609726,
To what extent did the music make you feel ,ANGRY,30MonoWAV/30MonoH3.wav,2,2,1,7,,,,,0,4,4,6,0,3,3,2,,,,,,,,,1,0.770304521000071,,,112,001,2019_Sep_11_1118,MusicAffectPsychophysiology2019,3.0.5,59.68091847609726,
To what extent did the music make you feel ,ANXIOUS ,30MonoWAV/30MonoH3.wav,2,2,1,7,,,,,0,4,4,6,0,4,4,1,,,,,,,,,1,0.9184717000025557,,,112,001,2019_Sep_11_1118,MusicAffectPsychophysiology2019,3.0.5,59.68091847609726,
To what extent did the music make you feel ,FRUSTRATED,30MonoWAV/30MonoH3.wav,2,2,1,7,,,,,0,4,4,6,0,5,5,3,,,,,,,,,1,0.7534182120070909,,,112,001,2019_Sep_11_1118,MusicAffectPsychophysiology2019,3.0.5,59.68091847609726,
To what extent did the music make you feel ,GUILTY,30MonoWAV/30MonoH3.wav,2,2,1,7,,,,,0,4,4,6,0,6,6,5,,,,,,,,,1,1.136181009998836,,,112,001,2019_Sep_11_1118,MusicAffectPsychophysiology2019,3.0.5,59.68091847609726,
To what extent did the music make you feel ,SCARED,30MonoWAV/30MonoH3.wav,2,2,1,7,,,,,0,4,4,6,0,7,7,11,,,,,,,,,1,1.0864837389963213,,,112,001,2019_Sep_11_1118,MusicAffectPsychophysiology2019,3.0.5,59.68091847609726,
To what extent did the music make you feel ,ALERT,30MonoWAV/30MonoH3.wav,2,2,1,7,,,,,0,4,4,6,0,8,8,8,,,,,,,,,4,0.9676915140007623,,,112,001,2019_Sep_11_1118,MusicAffectPsychophysiology2019,3.0.5,59.68091847609726,
To what extent did the music make you feel ,TENDER,30MonoWAV/30MonoH3.wav,2,2,1,7,,,,,0,4,4,6,0,9,9,10,,,,,,,,,2,4.017688813000859,,,112,001,2019_Sep_11_1118,MusicAffectPsychophysiology2019,3.0.5,59.68091847609726,
To what extent did the music make you feel ,EXCITED,30MonoWAV/30MonoH3.wav,2,2,1,7,,,,,0,4,4,6,0,10,10,7,,,,,,,,,4,1.0691793090009014,,,112,001,2019_Sep_11_1118,MusicAffectPsychophysiology2019,3.0.5,59.68091847609726,
To what extent did the music make you feel ,ASHAMED,30MonoWAV/30MonoH3.wav,2,2,1,7,,,,,0,4,4,6,0,11,11,4,,,,,,,,,1,1.4685140159999719,,,112,001,2019_Sep_11_1118,MusicAffectPsychophysiology2019,3.0.5,59.68091847609726,
,,30MonoWAV/30MonoH3.wav,2,2,1,7,,,,,0,4,4,6,,,,,,,,,,,,,,,,,112,001,2019_Sep_11_1118,MusicAffectPsychophysiology2019,3.0.5,59.68091847609726,
To what extent did the music make you feel ,ANGRY,30MonoWAV/30MonoT4.wav,2,1,4,16,,,,,0,5,5,15,0,0,0,2,,,2,3.269866077003826,5,2.0511007210006937,4,1.785535152994271,1,0.8191835850011557,,,112,001,2019_Sep_11_1118,MusicAffectPsychophysiology2019,3.0.5,59.68091847609726,
To what extent did the music make you feel ,ACTIVE,30MonoWAV/30MonoT4.wav,2,1,4,16,,,,,0,5,5,15,0,1,1,9,,,,,,,,,2,1.2667964959982783,,,112,001,2019_Sep_11_1118,MusicAffectPsychophysiology2019,3.0.5,59.68091847609726,
To what extent did the music make you feel ,HAPPY,30MonoWAV/30MonoT4.wav,2,1,4,16,,,,,0,5,5,15,0,2,2,6,,,,,,,,,4,2.0355094030019245,,,112,001,2019_Sep_11_1118,MusicAffectPsychophysiology2019,3.0.5,59.68091847609726,
To what extent did the music make you feel ,GUILTY,30MonoWAV/30MonoT4.wav,2,1,4,16,,,,,0,5,5,15,0,3,3,5,,,,,,,,,1,1.3863632809952833,,,112,001,2019_Sep_11_1118,MusicAffectPsychophysiology2019,3.0.5,59.68091847609726,
To what extent did the music make you feel ,SCARED,30MonoWAV/30MonoT4.wav,2,1,4,16,,,,,0,5,5,15,0,4,4,11,,,,,,,,,1,1.6014454499963904,,,112,001,2019_Sep_11_1118,MusicAffectPsychophysiology2019,3.0.5,59.68091847609726,
To what extent did the music make you feel ,SAD,30MonoWAV/30MonoT4.wav,2,1,4,16,,,,,0,5,5,15,0,5,5,0,,,,,,,,,1,0.6183674080020864,,,112,001,2019_Sep_11_1118,MusicAffectPsychophysiology2019,3.0.5,59.68091847609726,
To what extent did the music make you feel ,FRUSTRATED,30MonoWAV/30MonoT4.wav,2,1,4,16,,,,,0,5,5,15,0,6,6,3,,,,,,,,,1,0.9007786009970005,,,112,001,2019_Sep_11_1118,MusicAffectPsychophysiology2019,3.0.5,59.68091847609726,
To what extent did the music make you feel ,ALERT,30MonoWAV/30MonoT4.wav,2,1,4,16,,,,,0,5,5,15,0,7,7,8,,,,,,,,,2,1.1689979189977748,,,112,001,2019_Sep_11_1118,MusicAffectPsychophysiology2019,3.0.5,59.68091847609726,
To what extent did the music make you feel ,EXCITED,30MonoWAV/30MonoT4.wav,2,1,4,16,,,,,0,5,5,15,0,8,8,7,,,,,,,,,3,1.6027509830018971,,,112,001,2019_Sep_11_1118,MusicAffectPsychophysiology2019,3.0.5,59.68091847609726,
To what extent did the music make you feel ,ANXIOUS ,30MonoWAV/30MonoT4.wav,2,1,4,16,,,,,0,5,5,15,0,9,9,1,,,,,,,,,1,0.7839066439992166,,,112,001,2019_Sep_11_1118,MusicAffectPsychophysiology2019,3.0.5,59.68091847609726,
To what extent did the music make you feel ,ASHAMED,30MonoWAV/30MonoT4.wav,2,1,4,16,,,,,0,5,5,15,0,10,10,4,,,,,,,,,1,0.7521163980054553,,,112,001,2019_Sep_11_1118,MusicAffectPsychophysiology2019,3.0.5,59.68091847609726,
To what extent did the music make you feel ,TENDER,30MonoWAV/30MonoT4.wav,2,1,4,16,,,,,0,5,5,15,0,11,11,10,,,,,,,,,4,2.4024265270054457,,,112,001,2019_Sep_11_1118,MusicAffectPsychophysiology2019,3.0.5,59.68091847609726,
,,30MonoWAV/30MonoT4.wav,2,1,4,16,,,,,0,5,5,15,,,,,,,,,,,,,,,,,112,001,2019_Sep_11_1118,MusicAffectPsychophysiology2019,3.0.5,59.68091847609726,
To what extent did the music make you feel ,GUILTY,30MonoWAV/30MonoS4.wav,1,1,3,12,,,,,0,6,6,11,0,0,0,5,,,2,3.349898120999569,4,1.6852295009957743,4,1.2356115839938866,1,0.7756942980049644,,,112,001,2019_Sep_11_1118,MusicAffectPsychophysiology2019,3.0.5,59.68091847609726,
To what extent did the music make you feel ,ALERT,30MonoWAV/30MonoS4.wav,1,1,3,12,,,,,0,6,6,11,0,1,1,8,,,,,,,,,2,0.9855611279999721,,,112,001,2019_Sep_11_1118,MusicAffectPsychophysiology2019,3.0.5,59.68091847609726,
To what extent did the music make you feel ,TENDER,30MonoWAV/30MonoS4.wav,1,1,3,12,,,,,0,6,6,11,0,2,2,10,,,,,,,,,4,1.1525897179963067,,,112,001,2019_Sep_11_1118,MusicAffectPsychophysiology2019,3.0.5,59.68091847609726,
To what extent did the music make you feel ,ASHAMED,30MonoWAV/30MonoS4.wav,1,1,3,12,,,,,0,6,6,11,0,3,3,4,,,,,,,,,1,0.8028040540011716,,,112,001,2019_Sep_11_1118,MusicAffectPsychophysiology2019,3.0.5,59.68091847609726,
To what extent did the music make you feel ,ACTIVE,30MonoWAV/30MonoS4.wav,1,1,3,12,,,,,0,6,6,11,0,4,4,9,,,,,,,,,2,1.2327272220063605,,,112,001,2019_Sep_11_1118,MusicAffectPsychophysiology2019,3.0.5,59.68091847609726,
To what extent did the music make you feel ,HAPPY,30MonoWAV/30MonoS4.wav,1,1,3,12,,,,,0,6,6,11,0,5,5,6,,,,,,,,,4,1.1667330560012488,,,112,001,2019_Sep_11_1118,MusicAffectPsychophysiology2019,3.0.5,59.68091847609726,
To what extent did the music make you feel ,ANXIOUS ,30MonoWAV/30MonoS4.wav,1,1,3,12,,,,,0,6,6,11,0,6,6,1,,,,,,,,,1,0.8360880539985374,,,112,001,2019_Sep_11_1118,MusicAffectPsychophysiology2019,3.0.5,59.68091847609726,
To what extent did the music make you feel ,SCARED,30MonoWAV/30MonoS4.wav,1,1,3,12,,,,,0,6,6,11,0,7,7,11,,,,,,,,,1,0.8352969600018696,,,112,001,2019_Sep_11_1118,MusicAffectPsychophysiology2019,3.0.5,59.68091847609726,
To what extent did the music make you feel ,SAD,30MonoWAV/30MonoS4.wav,1,1,3,12,,,,,0,6,6,11,0,8,8,0,,,,,,,,,1,4.88534017100028,,,112,001,2019_Sep_11_1118,MusicAffectPsychophysiology2019,3.0.5,59.68091847609726,
To what extent did the music make you feel ,EXCITED,30MonoWAV/30MonoS4.wav,1,1,3,12,,,,,0,6,6,11,0,9,9,7,,,,,,,,,2,2.3862352400028612,,,112,001,2019_Sep_11_1118,MusicAffectPsychophysiology2019,3.0.5,59.68091847609726,
To what extent did the music make you feel ,ANGRY,30MonoWAV/30MonoS4.wav,1,1,3,12,,,,,0,6,6,11,0,10,10,2,,,,,,,,,1,0.6189289749963791,,,112,001,2019_Sep_11_1118,MusicAffectPsychophysiology2019,3.0.5,59.68091847609726,
To what extent did the music make you feel ,FRUSTRATED,30MonoWAV/30MonoS4.wav,1,1,3,12,,,,,0,6,6,11,0,11,11,3,,,,,,,,,1,0.7212602480067289,,,112,001,2019_Sep_11_1118,MusicAffectPsychophysiology2019,3.0.5,59.68091847609726,
,,30MonoWAV/30MonoS4.wav,1,1,3,12,,,,,0,6,6,11,,,,,,,,,,,,,,,,,112,001,2019_Sep_11_1118,MusicAffectPsychophysiology2019,3.0.5,59.68091847609726,
To what extent did the music make you feel ,EXCITED,30MonoWAV/30MonoT1.wav,2,1,4,13,,,,,0,7,7,12,0,0,0,7,,,2,3.2024973549996503,4,1.6191522570006782,3,1.9022811579998233,1,1.3187266340028145,,,112,001,2019_Sep_11_1118,MusicAffectPsychophysiology2019,3.0.5,59.68091847609726,
To what extent did the music make you feel ,ALERT,30MonoWAV/30MonoT1.wav,2,1,4,13,,,,,0,7,7,12,0,1,1,8,,,,,,,,,1,1.0690885430012713,,,112,001,2019_Sep_11_1118,MusicAffectPsychophysiology2019,3.0.5,59.68091847609726,
To what extent did the music make you feel ,ANGRY,30MonoWAV/30MonoT1.wav,2,1,4,13,,,,,0,7,7,12,0,2,2,2,,,,,,,,,1,0.5839103699981933,,,112,001,2019_Sep_11_1118,MusicAffectPsychophysiology2019,3.0.5,59.68091847609726,
To what extent did the music make you feel ,SCARED,30MonoWAV/30MonoT1.wav,2,1,4,13,,,,,0,7,7,12,0,3,3,11,,,,,,,,,1,0.6859224979998544,,,112,001,2019_Sep_11_1118,MusicAffectPsychophysiology2019,3.0.5,59.68091847609726,
To what extent did the music make you feel ,ASHAMED,30MonoWAV/30MonoT1.wav,2,1,4,13,,,,,0,7,7,12,0,4,4,4,,,,,,,,,1,0.6840905670032953,,,112,001,2019_Sep_11_1118,MusicAffectPsychophysiology2019,3.0.5,59.68091847609726,
To what extent did the music make you feel ,SAD,30MonoWAV/30MonoT1.wav,2,1,4,13,,,,,0,7,7,12,0,5,5,0,,,,,,,,,1,0.7857454800032428,,,112,001,2019_Sep_11_1118,MusicAffectPsychophysiology2019,3.0.5,59.68091847609726,
To what extent did the music make you feel ,ACTIVE,30MonoWAV/30MonoT1.wav,2,1,4,13,,,,,0,7,7,12,0,6,6,9,,,,,,,,,1,1.7187505319961929,,,112,001,2019_Sep_11_1118,MusicAffectPsychophysiology2019,3.0.5,59.68091847609726,
To what extent did the music make you feel ,ANXIOUS ,30MonoWAV/30MonoT1.wav,2,1,4,13,,,,,0,7,7,12,0,7,7,1,,,,,,,,,1,0.6858416500035673,,,112,001,2019_Sep_11_1118,MusicAffectPsychophysiology2019,3.0.5,59.68091847609726,
To what extent did the music make you feel ,FRUSTRATED,30MonoWAV/30MonoT1.wav,2,1,4,13,,,,,0,7,7,12,0,8,8,3,,,,,,,,,1,0.885940184998617,,,112,001,2019_Sep_11_1118,MusicAffectPsychophysiology2019,3.0.5,59.68091847609726,
To what extent did the music make you feel ,GUILTY,30MonoWAV/30MonoT1.wav,2,1,4,13,,,,,0,7,7,12,0,9,9,5,,,,,,,,,1,0.8834126990041113,,,112,001,2019_Sep_11_1118,MusicAffectPsychophysiology2019,3.0.5,59.68091847609726,
To what extent did the music make you feel ,HAPPY,30MonoWAV/30MonoT1.wav,2,1,4,13,,,,,0,7,7,12,0,10,10,6,,,,,,,,,3,2.002436660004605,,,112,001,2019_Sep_11_1118,MusicAffectPsychophysiology2019,3.0.5,59.68091847609726,
To what extent did the music make you feel ,TENDER,30MonoWAV/30MonoT1.wav,2,1,4,13,,,,,0,7,7,12,0,11,11,10,,,,,,,,,4,2.819162610001513,,,112,001,2019_Sep_11_1118,MusicAffectPsychophysiology2019,3.0.5,59.68091847609726,
,,30MonoWAV/30MonoT1.wav,2,1,4,13,,,,,0,7,7,12,,,,,,,,,,,,,,,,,112,001,2019_Sep_11_1118,MusicAffectPsychophysiology2019,3.0.5,59.68091847609726,
To what extent did the music make you feel ,GUILTY,30MonoWAV/30MonoS3.wav,1,1,3,11,,,,,0,8,8,10,0,0,0,5,,,2,3.718707045998599,1,1.883845491996908,1,2.0361201640043873,1,0.7950279439974111,,,112,001,2019_Sep_11_1118,MusicAffectPsychophysiology2019,3.0.5,59.68091847609726,
To what extent did the music make you feel ,ANXIOUS ,30MonoWAV/30MonoS3.wav,1,1,3,11,,,,,0,8,8,10,0,1,1,1,,,,,,,,,1,1.3028258019985515,,,112,001,2019_Sep_11_1118,MusicAffectPsychophysiology2019,3.0.5,59.68091847609726,
To what extent did the music make you feel ,HAPPY,30MonoWAV/30MonoS3.wav,1,1,3,11,,,,,0,8,8,10,0,2,2,6,,,,,,,,,1,1.8527342099987436,,,112,001,2019_Sep_11_1118,MusicAffectPsychophysiology2019,3.0.5,59.68091847609726,
To what extent did the music make you feel ,SCARED,30MonoWAV/30MonoS3.wav,1,1,3,11,,,,,0,8,8,10,0,3,3,11,,,,,,,,,1,1.619380451993493,,,112,001,2019_Sep_11_1118,MusicAffectPsychophysiology2019,3.0.5,59.68091847609726,
To what extent did the music make you feel ,SAD,30MonoWAV/30MonoS3.wav,1,1,3,11,,,,,0,8,8,10,0,4,4,0,,,,,,,,,3,2.185696499000187,,,112,001,2019_Sep_11_1118,MusicAffectPsychophysiology2019,3.0.5,59.68091847609726,
To what extent did the music make you feel ,ANGRY,30MonoWAV/30MonoS3.wav,1,1,3,11,,,,,0,8,8,10,0,5,5,2,,,,,,,,,1,1.0198661200047354,,,112,001,2019_Sep_11_1118,MusicAffectPsychophysiology2019,3.0.5,59.68091847609726,
To what extent did the music make you feel ,ASHAMED,30MonoWAV/30MonoS3.wav,1,1,3,11,,,,,0,8,8,10,0,6,6,4,,,,,,,,,1,0.7172013499948662,,,112,001,2019_Sep_11_1118,MusicAffectPsychophysiology2019,3.0.5,59.68091847609726,
To what extent did the music make you feel ,FRUSTRATED,30MonoWAV/30MonoS3.wav,1,1,3,11,,,,,0,8,8,10,0,7,7,3,,,,,,,,,1,1.1183969359990442,,,112,001,2019_Sep_11_1118,MusicAffectPsychophysiology2019,3.0.5,59.68091847609726,
To what extent did the music make you feel ,TENDER,30MonoWAV/30MonoS3.wav,1,1,3,11,,,,,0,8,8,10,0,8,8,10,,,,,,,,,2,3.4687037219991907,,,112,001,2019_Sep_11_1118,MusicAffectPsychophysiology2019,3.0.5,59.68091847609726,
To what extent did the music make you feel ,ACTIVE,30MonoWAV/30MonoS3.wav,1,1,3,11,,,,,0,8,8,10,0,9,9,9,,,,,,,,,1,1.6851859460002743,,,112,001,2019_Sep_11_1118,MusicAffectPsychophysiology2019,3.0.5,59.68091847609726,
To what extent did the music make you feel ,EXCITED,30MonoWAV/30MonoS3.wav,1,1,3,11,,,,,0,8,8,10,0,10,10,7,,,,,,,,,1,1.0676738139954978,,,112,001,2019_Sep_11_1118,MusicAffectPsychophysiology2019,3.0.5,59.68091847609726,
To what extent did the music make you feel ,ALERT,30MonoWAV/30MonoS3.wav,1,1,3,11,,,,,0,8,8,10,0,11,11,8,,,,,,,,,2,1.418268530003843,,,112,001,2019_Sep_11_1118,MusicAffectPsychophysiology2019,3.0.5,59.68091847609726,
,,30MonoWAV/30MonoS3.wav,1,1,3,11,,,,,0,8,8,10,,,,,,,,,,,,,,,,,112,001,2019_Sep_11_1118,MusicAffectPsychophysiology2019,3.0.5,59.68091847609726,
To what extent did the music make you feel ,HAPPY,30MonoWAV/30MonoF3.wav,1,2,2,3,,,,,0,9,9,2,0,0,0,6,,,3,4.734886423997523,1,1.3851164290026645,2,2.586108889998286,1,1.1385324010043405,,,112,001,2019_Sep_11_1118,MusicAffectPsychophysiology2019,3.0.5,59.68091847609726,
To what extent did the music make you feel ,ASHAMED,30MonoWAV/30MonoF3.wav,1,2,2,3,,,,,0,9,9,2,0,1,1,4,,,,,,,,,1,1.002285586000653,,,112,001,2019_Sep_11_1118,MusicAffectPsychophysiology2019,3.0.5,59.68091847609726,
To what extent did the music make you feel ,SAD,30MonoWAV/30MonoF3.wav,1,2,2,3,,,,,0,9,9,2,0,2,2,0,,,,,,,,,1,1.4026102450006874,,,112,001,2019_Sep_11_1118,MusicAffectPsychophysiology2019,3.0.5,59.68091847609726,
To what extent did the music make you feel ,ACTIVE,30MonoWAV/30MonoF3.wav,1,2,2,3,,,,,0,9,9,2,0,3,3,9,,,,,,,,,5,1.8528996070017456,,,112,001,2019_Sep_11_1118,MusicAffectPsychophysiology2019,3.0.5,59.68091847609726,
To what extent did the music make you feel ,SCARED,30MonoWAV/30MonoF3.wav,1,2,2,3,,,,,0,9,9,2,0,4,4,11,,,,,,,,,2,3.2337542759996722,,,112,001,2019_Sep_11_1118,MusicAffectPsychophysiology2019,3.0.5,59.68091847609726,
To what extent did the music make you feel ,EXCITED,30MonoWAV/30MonoF3.wav,1,2,2,3,,,,,0,9,9,2,0,5,5,7,,,,,,,,,2,1.669031203004124,,,112,001,2019_Sep_11_1118,MusicAffectPsychophysiology2019,3.0.5,59.68091847609726,
To what extent did the music make you feel ,GUILTY,30MonoWAV/30MonoF3.wav,1,2,2,3,,,,,0,9,9,2,0,6,6,5,,,,,,,,,1,0.8528330929984804,,,112,001,2019_Sep_11_1118,MusicAffectPsychophysiology2019,3.0.5,59.68091847609726,
To what extent did the music make you feel ,FRUSTRATED,30MonoWAV/30MonoF3.wav,1,2,2,3,,,,,0,9,9,2,0,7,7,3,,,,,,,,,1,0.9862142330021015,,,112,001,2019_Sep_11_1118,MusicAffectPsychophysiology2019,3.0.5,59.68091847609726,
To what extent did the music make you feel ,ALERT,30MonoWAV/30MonoF3.wav,1,2,2,3,,,,,0,9,9,2,0,8,8,8,,,,,,,,,5,1.985112021000532,,,112,001,2019_Sep_11_1118,MusicAffectPsychophysiology2019,3.0.5,59.68091847609726,
To what extent did the music make you feel ,ANXIOUS ,30MonoWAV/30MonoF3.wav,1,2,2,3,,,,,0,9,9,2,0,9,9,1,,,,,,,,,4,1.352159052999923,,,112,001,2019_Sep_11_1118,MusicAffectPsychophysiology2019,3.0.5,59.68091847609726,
To what extent did the music make you feel ,TENDER,30MonoWAV/30MonoF3.wav,1,2,2,3,,,,,0,9,9,2,0,10,10,10,,,,,,,,,1,0.953245100005006,,,112,001,2019_Sep_11_1118,MusicAffectPsychophysiology2019,3.0.5,59.68091847609726,
To what extent did the music make you feel ,ANGRY,30MonoWAV/30MonoF3.wav,1,2,2,3,,,,,0,9,9,2,0,11,11,2,,,,,,,,,1,1.2859478009995655,,,112,001,2019_Sep_11_1118,MusicAffectPsychophysiology2019,3.0.5,59.68091847609726,
,,30MonoWAV/30MonoF3.wav,1,2,2,3,,,,,0,9,9,2,,,,,,,,,,,,,,,,,112,001,2019_Sep_11_1118,MusicAffectPsychophysiology2019,3.0.5,59.68091847609726,
To what extent did the music make you feel ,FRUSTRATED,30MonoWAV/30MonoS1.wav,1,1,3,9,,,,,0,10,10,8,0,0,0,3,,,2,4.149722191999899,3,3.9517018020051182,3,3.23325540299993,1,0.9316375069975038,,,112,001,2019_Sep_11_1118,MusicAffectPsychophysiology2019,3.0.5,59.68091847609726,
To what extent did the music make you feel ,ASHAMED,30MonoWAV/30MonoS1.wav,1,1,3,9,,,,,0,10,10,8,0,1,1,4,,,,,,,,,1,0.5187552150018746,,,112,001,2019_Sep_11_1118,MusicAffectPsychophysiology2019,3.0.5,59.68091847609726,
To what extent did the music make you feel ,SAD,30MonoWAV/30MonoS1.wav,1,1,3,9,,,,,0,10,10,8,0,2,2,0,,,,,,,,,2,1.1172956419977709,,,112,001,2019_Sep_11_1118,MusicAffectPsychophysiology2019,3.0.5,59.68091847609726,
To what extent did the music make you feel ,ALERT,30MonoWAV/30MonoS1.wav,1,1,3,9,,,,,0,10,10,8,0,3,3,8,,,,,,,,,2,1.5502593209967017,,,112,001,2019_Sep_11_1118,MusicAffectPsychophysiology2019,3.0.5,59.68091847609726,
To what extent did the music make you feel ,ACTIVE,30MonoWAV/30MonoS1.wav,1,1,3,9,,,,,0,10,10,8,0,4,4,9,,,,,,,,,1,1.7835018420009874,,,112,001,2019_Sep_11_1118,MusicAffectPsychophysiology2019,3.0.5,59.68091847609726,
To what extent did the music make you feel ,GUILTY,30MonoWAV/30MonoS1.wav,1,1,3,9,,,,,0,10,10,8,0,5,5,5,,,,,,,,,1,0.7871604510000907,,,112,001,2019_Sep_11_1118,MusicAffectPsychophysiology2019,3.0.5,59.68091847609726,
To what extent did the music make you feel ,SCARED,30MonoWAV/30MonoS1.wav,1,1,3,9,,,,,0,10,10,8,0,6,6,11,,,,,,,,,1,0.8983093520000693,,,112,001,2019_Sep_11_1118,MusicAffectPsychophysiology2019,3.0.5,59.68091847609726,
To what extent did the music make you feel ,ANXIOUS ,30MonoWAV/30MonoS1.wav,1,1,3,9,,,,,0,10,10,8,0,7,7,1,,,,,,,,,1,0.7537749969997094,,,112,001,2019_Sep_11_1118,MusicAffectPsychophysiology2019,3.0.5,59.68091847609726,
To what extent did the music make you feel ,TENDER,30MonoWAV/30MonoS1.wav,1,1,3,9,,,,,0,10,10,8,0,8,8,10,,,,,,,,,4,1.2694781429963768,,,112,001,2019_Sep_11_1118,MusicAffectPsychophysiology2019,3.0.5,59.68091847609726,
To what extent did the music make you feel ,EXCITED,30MonoWAV/30MonoS1.wav,1,1,3,9,,,,,0,10,10,8,0,9,9,7,,,,,,,,,1,1.3709086910021142,,,112,001,2019_Sep_11_1118,MusicAffectPsychophysiology2019,3.0.5,59.68091847609726,
To what extent did the music make you feel ,HAPPY,30MonoWAV/30MonoS1.wav,1,1,3,9,,,,,0,10,10,8,0,10,10,6,,,,,,,,,1,3.1184236129993224,,,112,001,2019_Sep_11_1118,MusicAffectPsychophysiology2019,3.0.5,59.68091847609726,
To what extent did the music make you feel ,ANGRY,30MonoWAV/30MonoS1.wav,1,1,3,9,,,,,0,10,10,8,0,11,11,2,,,,,,,,,1,2.802857369002595,,,112,001,2019_Sep_11_1118,MusicAffectPsychophysiology2019,3.0.5,59.68091847609726,
,,30MonoWAV/30MonoS1.wav,1,1,3,9,,,,,0,10,10,8,,,,,,,,,,,,,,,,,112,001,2019_Sep_11_1118,MusicAffectPsychophysiology2019,3.0.5,59.68091847609726,
To what extent did the music make you feel ,ASHAMED,30MonoWAV/30MonoH1.wav,2,2,1,5,,,,,0,11,11,4,0,0,0,4,,,5,3.318789179997111,5,1.9331806560003315,4,1.2865642860051594,1,1.1236864809980034,,,112,001,2019_Sep_11_1118,MusicAffectPsychophysiology2019,3.0.5,59.68091847609726,
To what extent did the music make you feel ,TENDER,30MonoWAV/30MonoH1.wav,2,2,1,5,,,,,0,11,11,4,0,1,1,10,,,,,,,,,1,0.4693178649977199,,,112,001,2019_Sep_11_1118,MusicAffectPsychophysiology2019,3.0.5,59.68091847609726,
To what extent did the music make you feel ,FRUSTRATED,30MonoWAV/30MonoH1.wav,2,2,1,5,,,,,0,11,11,4,0,2,2,3,,,,,,,,,1,1.268937383996672,,,112,001,2019_Sep_11_1118,MusicAffectPsychophysiology2019,3.0.5,59.68091847609726,
To what extent did the music make you feel ,SCARED,30MonoWAV/30MonoH1.wav,2,2,1,5,,,,,0,11,11,4,0,3,3,11,,,,,,,,,1,0.5028687360027106,,,112,001,2019_Sep_11_1118,MusicAffectPsychophysiology2019,3.0.5,59.68091847609726,
To what extent did the music make you feel ,GUILTY,30MonoWAV/30MonoH1.wav,2,2,1,5,,,,,0,11,11,4,0,4,4,5,,,,,,,,,1,0.5695496090047527,,,112,001,2019_Sep_11_1118,MusicAffectPsychophysiology2019,3.0.5,59.68091847609726,
To what extent did the music make you feel ,HAPPY,30MonoWAV/30MonoH1.wav,2,2,1,5,,,,,0,11,11,4,0,5,5,6,,,,,,,,,5,1.6351471660018433,,,112,001,2019_Sep_11_1118,MusicAffectPsychophysiology2019,3.0.5,59.68091847609726,
To what extent did the music make you feel ,ANXIOUS ,30MonoWAV/30MonoH1.wav,2,2,1,5,,,,,0,11,11,4,0,6,6,1,,,,,,,,,1,0.8001800420024665,,,112,001,2019_Sep_11_1118,MusicAffectPsychophysiology2019,3.0.5,59.68091847609726,
To what extent did the music make you feel ,ACTIVE,30MonoWAV/30MonoH1.wav,2,2,1,5,,,,,0,11,11,4,0,7,7,9,,,,,,,,,4,1.8706046389997937,,,112,001,2019_Sep_11_1118,MusicAffectPsychophysiology2019,3.0.5,59.68091847609726,
To what extent did the music make you feel ,ANGRY,30MonoWAV/30MonoH1.wav,2,2,1,5,,,,,0,11,11,4,0,8,8,2,,,,,,,,,1,0.8686475650029024,,,112,001,2019_Sep_11_1118,MusicAffectPsychophysiology2019,3.0.5,59.68091847609726,
To what extent did the music make you feel ,ALERT,30MonoWAV/30MonoH1.wav,2,2,1,5,,,,,0,11,11,4,0,9,9,8,,,,,,,,,3,6.118586340002366,,,112,001,2019_Sep_11_1118,MusicAffectPsychophysiology2019,3.0.5,59.68091847609726,
To what extent did the music make you feel ,SAD,30MonoWAV/30MonoH1.wav,2,2,1,5,,,,,0,11,11,4,0,10,10,0,,,,,,,,,1,0.602470744997845,,,112,001,2019_Sep_11_1118,MusicAffectPsychophysiology2019,3.0.5,59.68091847609726,
To what extent did the music make you feel ,EXCITED,30MonoWAV/30MonoH1.wav,2,2,1,5,,,,,0,11,11,4,0,11,11,7,,,,,,,,,4,2.1696731449992512,,,112,001,2019_Sep_11_1118,MusicAffectPsychophysiology2019,3.0.5,59.68091847609726,
,,30MonoWAV/30MonoH1.wav,2,2,1,5,,,,,0,11,11,4,,,,,,,,,,,,,,,,,112,001,2019_Sep_11_1118,MusicAffectPsychophysiology2019,3.0.5,59.68091847609726,
To what extent did the music make you feel ,EXCITED,30MonoWAV/30MonoS2.wav,1,1,3,10,,,,,0,12,12,9,0,0,0,7,,,1,3.900949554001272,4,1.5337747970042983,3,2.7519991799999843,1,1.3864992079979856,,,112,001,2019_Sep_11_1118,MusicAffectPsychophysiology2019,3.0.5,59.68091847609726,
To what extent did the music make you feel ,SAD,30MonoWAV/30MonoS2.wav,1,1,3,10,,,,,0,12,12,9,0,1,1,0,,,,,,,,,2,6.5996969749976415,,,112,001,2019_Sep_11_1118,MusicAffectPsychophysiology2019,3.0.5,59.68091847609726,
To what extent did the music make you feel ,ACTIVE,30MonoWAV/30MonoS2.wav,1,1,3,10,,,,,0,12,12,9,0,2,2,9,,,,,,,,,1,1.7188109220005572,,,112,001,2019_Sep_11_1118,MusicAffectPsychophysiology2019,3.0.5,59.68091847609726,
To what extent did the music make you feel ,FRUSTRATED,30MonoWAV/30MonoS2.wav,1,1,3,10,,,,,0,12,12,9,0,3,3,3,,,,,,,,,1,1.0862003699949128,,,112,001,2019_Sep_11_1118,MusicAffectPsychophysiology2019,3.0.5,59.68091847609726,
To what extent did the music make you feel ,ANXIOUS ,30MonoWAV/30MonoS2.wav,1,1,3,10,,,,,0,12,12,9,0,4,4,1,,,,,,,,,1,0.9856244010006776,,,112,001,2019_Sep_11_1118,MusicAffectPsychophysiology2019,3.0.5,59.68091847609726,
To what extent did the music make you feel ,TENDER,30MonoWAV/30MonoS2.wav,1,1,3,10,,,,,0,12,12,9,0,5,5,10,,,,,,,,,4,1.7674737880006433,,,112,001,2019_Sep_11_1118,MusicAffectPsychophysiology2019,3.0.5,59.68091847609726,
To what extent did the music make you feel ,SCARED,30MonoWAV/30MonoS2.wav,1,1,3,10,,,,,0,12,12,9,0,6,6,11,,,,,,,,,1,1.06916290299705,,,112,001,2019_Sep_11_1118,MusicAffectPsychophysiology2019,3.0.5,59.68091847609726,
To what extent did the music make you feel ,ASHAMED,30MonoWAV/30MonoS2.wav,1,1,3,10,,,,,0,12,12,9,0,7,7,4,,,,,,,,,1,0.8356510030062054,,,112,001,2019_Sep_11_1118,MusicAffectPsychophysiology2019,3.0.5,59.68091847609726,
To what extent did the music make you feel ,ALERT,30MonoWAV/30MonoS2.wav,1,1,3,10,,,,,0,12,12,9,0,8,8,8,,,,,,,,,2,1.8018200730002718,,,112,001,2019_Sep_11_1118,MusicAffectPsychophysiology2019,3.0.5,59.68091847609726,
To what extent did the music make you feel ,GUILTY,30MonoWAV/30MonoS2.wav,1,1,3,10,,,,,0,12,12,9,0,9,9,5,,,,,,,,,1,3.784685922997596,,,112,001,2019_Sep_11_1118,MusicAffectPsychophysiology2019,3.0.5,59.68091847609726,
To what extent did the music make you feel ,HAPPY,30MonoWAV/30MonoS2.wav,1,1,3,10,,,,,0,12,12,9,0,10,10,6,,,,,,,,,1,1.1697753710031975,,,112,001,2019_Sep_11_1118,MusicAffectPsychophysiology2019,3.0.5,59.68091847609726,
To what extent did the music make you feel ,ANGRY,30MonoWAV/30MonoS2.wav,1,1,3,10,,,,,0,12,12,9,0,11,11,2,,,,,,,,,1,0.9365576869968208,,,112,001,2019_Sep_11_1118,MusicAffectPsychophysiology2019,3.0.5,59.68091847609726,
,,30MonoWAV/30MonoS2.wav,1,1,3,10,,,,,0,12,12,9,,,,,,,,,,,,,,,,,112,001,2019_Sep_11_1118,MusicAffectPsychophysiology2019,3.0.5,59.68091847609726,
To what extent did the music make you feel ,SAD,30MonoWAV/30MonoH2.wav,2,2,1,6,,,,,0,13,13,5,0,0,0,0,,,3,3.4854929399953107,4,2.4177411579948966,2,2.601235239999369,1,1.1030339450007887,,,112,001,2019_Sep_11_1118,MusicAffectPsychophysiology2019,3.0.5,59.68091847609726,
To what extent did the music make you feel ,ALERT,30MonoWAV/30MonoH2.wav,2,2,1,6,,,,,0,13,13,5,0,1,1,8,,,,,,,,,2,1.6689896219977527,,,112,001,2019_Sep_11_1118,MusicAffectPsychophysiology2019,3.0.5,59.68091847609726,
To what extent did the music make you feel ,FRUSTRATED,30MonoWAV/30MonoH2.wav,2,2,1,6,,,,,0,13,13,5,0,2,2,3,,,,,,,,,1,0.7260669950046577,,,112,001,2019_Sep_11_1118,MusicAffectPsychophysiology2019,3.0.5,59.68091847609726,
To what extent did the music make you feel ,SCARED,30MonoWAV/30MonoH2.wav,2,2,1,6,,,,,0,13,13,5,0,3,3,11,,,,,,,,,1,0.5525305170012871,,,112,001,2019_Sep_11_1118,MusicAffectPsychophysiology2019,3.0.5,59.68091847609726,
To what extent did the music make you feel ,HAPPY,30MonoWAV/30MonoH2.wav,2,2,1,6,,,,,0,13,13,5,0,4,4,6,,,,,,,,,2,1.2525439040036872,,,112,001,2019_Sep_11_1118,MusicAffectPsychophysiology2019,3.0.5,59.68091847609726,
To what extent did the music make you feel ,ASHAMED,30MonoWAV/30MonoH2.wav,2,2,1,6,,,,,0,13,13,5,0,5,5,4,,,,,,,,,1,0.7168150729994522,,,112,001,2019_Sep_11_1118,MusicAffectPsychophysiology2019,3.0.5,59.68091847609726,
To what extent did the music make you feel ,ACTIVE,30MonoWAV/30MonoH2.wav,2,2,1,6,,,,,0,13,13,5,0,6,6,9,,,,,,,,,3,2.502628824993735,,,112,001,2019_Sep_11_1118,MusicAffectPsychophysiology2019,3.0.5,59.68091847609726,
To what extent did the music make you feel ,GUILTY,30MonoWAV/30MonoH2.wav,2,2,1,6,,,,,0,13,13,5,0,7,7,5,,,,,,,,,1,0.7168130350037245,,,112,001,2019_Sep_11_1118,MusicAffectPsychophysiology2019,3.0.5,59.68091847609726,
To what extent did the music make you feel ,ANXIOUS ,30MonoWAV/30MonoH2.wav,2,2,1,6,,,,,0,13,13,5,0,8,8,1,,,,,,,,,1,1.0858076380027342,,,112,001,2019_Sep_11_1118,MusicAffectPsychophysiology2019,3.0.5,59.68091847609726,
To what extent did the music make you feel ,TENDER,30MonoWAV/30MonoH2.wav,2,2,1,6,,,,,0,13,13,5,0,9,9,10,,,,,,,,,1,1.8200572480054689,,,112,001,2019_Sep_11_1118,MusicAffectPsychophysiology2019,3.0.5,59.68091847609726,
To what extent did the music make you feel ,EXCITED,30MonoWAV/30MonoH2.wav,2,2,1,6,,,,,0,13,13,5,0,10,10,7,,,,,,,,,3,1.4018224149986054,,,112,001,2019_Sep_11_1118,MusicAffectPsychophysiology2019,3.0.5,59.68091847609726,
To what extent did the music make you feel ,ANGRY,30MonoWAV/30MonoH2.wav,2,2,1,6,,,,,0,13,13,5,0,11,11,2,,,,,,,,,1,0.8037551130037173,,,112,001,2019_Sep_11_1118,MusicAffectPsychophysiology2019,3.0.5,59.68091847609726,
,,30MonoWAV/30MonoH2.wav,2,2,1,6,,,,,0,13,13,5,,,,,,,,,,,,,,,,,112,001,2019_Sep_11_1118,MusicAffectPsychophysiology2019,3.0.5,59.68091847609726,
To what extent did the music make you feel ,SCARED,30MonoWAV/30MonoF2.wav,1,2,2,2,,,,,0,14,14,1,0,0,0,11,,,4,2.8689891640024143,1,1.3357463219945203,2,1.584601376001956,3,2.0021591909971903,,,112,001,2019_Sep_11_1118,MusicAffectPsychophysiology2019,3.0.5,59.68091847609726,
To what extent did the music make you feel ,ASHAMED,30MonoWAV/30MonoF2.wav,1,2,2,2,,,,,0,14,14,1,0,1,1,4,,,,,,,,,1,0.9685207919974346,,,112,001,2019_Sep_11_1118,MusicAffectPsychophysiology2019,3.0.5,59.68091847609726,
To what extent did the music make you feel ,EXCITED,30MonoWAV/30MonoF2.wav,1,2,2,2,,,,,0,14,14,1,0,2,2,7,,,,,,,,,2,1.719504261003749,,,112,001,2019_Sep_11_1118,MusicAffectPsychophysiology2019,3.0.5,59.68091847609726,
To what extent did the music make you feel ,ANXIOUS ,30MonoWAV/30MonoF2.wav,1,2,2,2,,,,,0,14,14,1,0,3,3,1,,,,,,,,,4,1.6861593419962446,,,112,001,2019_Sep_11_1118,MusicAffectPsychophysiology2019,3.0.5,59.68091847609726,
To what extent did the music make you feel ,ACTIVE,30MonoWAV/30MonoF2.wav,1,2,2,2,,,,,0,14,14,1,0,4,4,9,,,,,,,,,4,3.7509850740025286,,,112,001,2019_Sep_11_1118,MusicAffectPsychophysiology2019,3.0.5,59.68091847609726,
To what extent did the music make you feel ,ALERT,30MonoWAV/30MonoF2.wav,1,2,2,2,,,,,0,14,14,1,0,5,5,8,,,,,,,,,5,1.819917667999107,,,112,001,2019_Sep_11_1118,MusicAffectPsychophysiology2019,3.0.5,59.68091847609726,
To what extent did the music make you feel ,ANGRY,30MonoWAV/30MonoF2.wav,1,2,2,2,,,,,0,14,14,1,0,6,6,2,,,,,,,,,1,0.8325987110001734,,,112,001,2019_Sep_11_1118,MusicAffectPsychophysiology2019,3.0.5,59.68091847609726,
To what extent did the music make you feel ,GUILTY,30MonoWAV/30MonoF2.wav,1,2,2,2,,,,,0,14,14,1,0,7,7,5,,,,,,,,,1,0.8352360900025815,,,112,001,2019_Sep_11_1118,MusicAffectPsychophysiology2019,3.0.5,59.68091847609726,
To what extent did the music make you feel ,FRUSTRATED,30MonoWAV/30MonoF2.wav,1,2,2,2,,,,,0,14,14,1,0,8,8,3,,,,,,,,,1,0.7873330489965156,,,112,001,2019_Sep_11_1118,MusicAffectPsychophysiology2019,3.0.5,59.68091847609726,
To what extent did the music make you feel ,SAD,30MonoWAV/30MonoF2.wav,1,2,2,2,,,,,0,14,14,1,0,9,9,0,,,,,,,,,1,1.019754927001486,,,112,001,2019_Sep_11_1118,MusicAffectPsychophysiology2019,3.0.5,59.68091847609726,
To what extent did the music make you feel ,HAPPY,30MonoWAV/30MonoF2.wav,1,2,2,2,,,,,0,14,14,1,0,10,10,6,,,,,,,,,1,1.0858505340002012,,,112,001,2019_Sep_11_1118,MusicAffectPsychophysiology2019,3.0.5,59.68091847609726,
To what extent did the music make you feel ,TENDER,30MonoWAV/30MonoF2.wav,1,2,2,2,,,,,0,14,14,1,0,11,11,10,,,,,,,,,1,0.785207253000408,,,112,001,2019_Sep_11_1118,MusicAffectPsychophysiology2019,3.0.5,59.68091847609726,
,,30MonoWAV/30MonoF2.wav,1,2,2,2,,,,,0,14,14,1,,,,,,,,,,,,,,,,,112,001,2019_Sep_11_1118,MusicAffectPsychophysiology2019,3.0.5,59.68091847609726,
To what extent did the music make you feel ,ANXIOUS ,30MonoWAV/30MonoT2.wav,2,1,4,14,,,,,0,15,15,13,0,0,0,1,,,3,3.452138034001109,4,1.2867753919999814,4,2.8692920499961474,1,0.8933380090020364,,,112,001,2019_Sep_11_1118,MusicAffectPsychophysiology2019,3.0.5,59.68091847609726,
To what extent did the music make you feel ,HAPPY,30MonoWAV/30MonoT2.wav,2,1,4,14,,,,,0,15,15,13,0,1,1,6,,,,,,,,,4,1.3825530050016823,,,112,001,2019_Sep_11_1118,MusicAffectPsychophysiology2019,3.0.5,59.68091847609726,
To what extent did the music make you feel ,ASHAMED,30MonoWAV/30MonoT2.wav,2,1,4,14,,,,,0,15,15,13,0,2,2,4,,,,,,,,,1,0.9362911280040862,,,112,001,2019_Sep_11_1118,MusicAffectPsychophysiology2019,3.0.5,59.68091847609726,
To what extent did the music make you feel ,GUILTY,30MonoWAV/30MonoT2.wav,2,1,4,14,,,,,0,15,15,13,0,3,3,5,,,,,,,,,1,0.80279825800244,,,112,001,2019_Sep_11_1118,MusicAffectPsychophysiology2019,3.0.5,59.68091847609726,
To what extent did the music make you feel ,TENDER,30MonoWAV/30MonoT2.wav,2,1,4,14,,,,,0,15,15,13,0,4,4,10,,,,,,,,,4,0.9671016470019822,,,112,001,2019_Sep_11_1118,MusicAffectPsychophysiology2019,3.0.5,59.68091847609726,
To what extent did the music make you feel ,ACTIVE,30MonoWAV/30MonoT2.wav,2,1,4,14,,,,,0,15,15,13,0,5,5,9,,,,,,,,,3,1.6336672109973733,,,112,001,2019_Sep_11_1118,MusicAffectPsychophysiology2019,3.0.5,59.68091847609726,
To what extent did the music make you feel ,SAD,30MonoWAV/30MonoT2.wav,2,1,4,14,,,,,0,15,15,13,0,6,6,0,,,,,,,,,2,6.5347136779964785,,,112,001,2019_Sep_11_1118,MusicAffectPsychophysiology2019,3.0.5,59.68091847609726,
To what extent did the music make you feel ,ANGRY,30MonoWAV/30MonoT2.wav,2,1,4,14,,,,,0,15,15,13,0,7,7,2,,,,,,,,,1,0.6671929439980886,,,112,001,2019_Sep_11_1118,MusicAffectPsychophysiology2019,3.0.5,59.68091847609726,
To what extent did the music make you feel ,FRUSTRATED,30MonoWAV/30MonoT2.wav,2,1,4,14,,,,,0,15,15,13,0,8,8,3,,,,,,,,,1,0.6362902019973262,,,112,001,2019_Sep_11_1118,MusicAffectPsychophysiology2019,3.0.5,59.68091847609726,
To what extent did the music make you feel ,SCARED,30MonoWAV/30MonoT2.wav,2,1,4,14,,,,,0,15,15,13,0,9,9,11,,,,,,,,,1,0.7852108939987374,,,112,001,2019_Sep_11_1118,MusicAffectPsychophysiology2019,3.0.5,59.68091847609726,
To what extent did the music make you feel ,ALERT,30MonoWAV/30MonoT2.wav,2,1,4,14,,,,,0,15,15,13,0,10,10,8,,,,,,,,,2,3.052152396994643,,,112,001,2019_Sep_11_1118,MusicAffectPsychophysiology2019,3.0.5,59.68091847609726,
To what extent did the music make you feel ,EXCITED,30MonoWAV/30MonoT2.wav,2,1,4,14,,,,,0,15,15,13,0,11,11,7,,,,,,,,,3,1.1520119400011026,,,112,001,2019_Sep_11_1118,MusicAffectPsychophysiology2019,3.0.5,59.68091847609726,
,,30MonoWAV/30MonoT2.wav,2,1,4,14,,,,,0,15,15,13,,,,,,,,,,,,,,,,,112,001,2019_Sep_11_1118,MusicAffectPsychophysiology2019,3.0.5,59.68091847609726,
To what extent did the music make you feel ,GUILTY,30MonoWAV/30MonoT4.wav,2,1,4,16,,,,,1,0,16,15,0,0,0,5,,,2,6.719261541999003,5,1.8507447999945725,4,0.9867967919999501,1,0.8180319820021396,,,112,001,2019_Sep_11_1118,MusicAffectPsychophysiology2019,3.0.5,59.68091847609726,
To what extent did the music make you feel ,SCARED,30MonoWAV/30MonoT4.wav,2,1,4,16,,,,,1,0,16,15,0,1,1,11,,,,,,,,,1,0.5197754190012347,,,112,001,2019_Sep_11_1118,MusicAffectPsychophysiology2019,3.0.5,59.68091847609726,
To what extent did the music make you feel ,ANXIOUS ,30MonoWAV/30MonoT4.wav,2,1,4,16,,,,,1,0,16,15,0,2,2,1,,,,,,,,,1,1.8182641679959488,,,112,001,2019_Sep_11_1118,MusicAffectPsychophysiology2019,3.0.5,59.68091847609726,
To what extent did the music make you feel ,EXCITED,30MonoWAV/30MonoT4.wav,2,1,4,16,,,,,1,0,16,15,0,3,3,7,,,,,,,,,1,2.8854224869937752,,,112,001,2019_Sep_11_1118,MusicAffectPsychophysiology2019,3.0.5,59.68091847609726,
To what extent did the music make you feel ,ACTIVE,30MonoWAV/30MonoT4.wav,2,1,4,16,,,,,1,0,16,15,0,4,4,9,,,,,,,,,2,1.3700296680035535,,,112,001,2019_Sep_11_1118,MusicAffectPsychophysiology2019,3.0.5,59.68091847609726,
To what extent did the music make you feel ,ALERT,30MonoWAV/30MonoT4.wav,2,1,4,16,,,,,1,0,16,15,0,5,5,8,,,,,,,,,1,0.8530224060014007,,,112,001,2019_Sep_11_1118,MusicAffectPsychophysiology2019,3.0.5,59.68091847609726,
To what extent did the music make you feel ,FRUSTRATED,30MonoWAV/30MonoT4.wav,2,1,4,16,,,,,1,0,16,15,0,6,6,3,,,,,,,,,1,0.865941947005922,,,112,001,2019_Sep_11_1118,MusicAffectPsychophysiology2019,3.0.5,59.68091847609726,
To what extent did the music make you feel ,ANGRY,30MonoWAV/30MonoT4.wav,2,1,4,16,,,,,1,0,16,15,0,7,7,2,,,,,,,,,1,0.551992374996189,,,112,001,2019_Sep_11_1118,MusicAffectPsychophysiology2019,3.0.5,59.68091847609726,
To what extent did the music make you feel ,TENDER,30MonoWAV/30MonoT4.wav,2,1,4,16,,,,,1,0,16,15,0,8,8,10,,,,,,,,,4,1.2365140889960458,,,112,001,2019_Sep_11_1118,MusicAffectPsychophysiology2019,3.0.5,59.68091847609726,
To what extent did the music make you feel ,ASHAMED,30MonoWAV/30MonoT4.wav,2,1,4,16,,,,,1,0,16,15,0,9,9,4,,,,,,,,,1,2.0024938189962995,,,112,001,2019_Sep_11_1118,MusicAffectPsychophysiology2019,3.0.5,59.68091847609726,
To what extent did the music make you feel ,HAPPY,30MonoWAV/30MonoT4.wav,2,1,4,16,,,,,1,0,16,15,0,10,10,6,,,,,,,,,2,1.0861281030011014,,,112,001,2019_Sep_11_1118,MusicAffectPsychophysiology2019,3.0.5,59.68091847609726,
To what extent did the music make you feel ,SAD,30MonoWAV/30MonoT4.wav,2,1,4,16,,,,,1,0,16,15,0,11,11,0,,,,,,,,,1,1.5362034350036993,,,112,001,2019_Sep_11_1118,MusicAffectPsychophysiology2019,3.0.5,59.68091847609726,
,,30MonoWAV/30MonoT4.wav,2,1,4,16,,,,,1,0,16,15,,,,,,,,,,,,,,,,,112,001,2019_Sep_11_1118,MusicAffectPsychophysiology2019,3.0.5,59.68091847609726,
To what extent did the music make you feel ,EXCITED,30MonoWAV/30MonoS4.wav,1,1,3,12,,,,,1,1,17,11,0,0,0,7,,,1,3.203256454995426,4,1.5692439240010572,4,1.4193127549951896,1,1.612656553996203,,,112,001,2019_Sep_11_1118,MusicAffectPsychophysiology2019,3.0.5,59.68091847609726,
To what extent did the music make you feel ,ANGRY,30MonoWAV/30MonoS4.wav,1,1,3,12,,,,,1,1,17,11,0,1,1,2,,,,,,,,,1,0.6187530090028304,,,112,001,2019_Sep_11_1118,MusicAffectPsychophysiology2019,3.0.5,59.68091847609726,
To what extent did the music make you feel ,HAPPY,30MonoWAV/30MonoS4.wav,1,1,3,12,,,,,1,1,17,11,0,2,2,6,,,,,,,,,3,3.3186548500016215,,,112,001,2019_Sep_11_1118,MusicAffectPsychophysiology2019,3.0.5,59.68091847609726,
To what extent did the music make you feel ,GUILTY,30MonoWAV/30MonoS4.wav,1,1,3,12,,,,,1,1,17,11,0,3,3,5,,,,,,,,,1,1.1192475910065696,,,112,001,2019_Sep_11_1118,MusicAffectPsychophysiology2019,3.0.5,59.68091847609726,
To what extent did the music make you feel ,ANXIOUS ,30MonoWAV/30MonoS4.wav,1,1,3,12,,,,,1,1,17,11,0,4,4,1,,,,,,,,,1,1.369630111999868,,,112,001,2019_Sep_11_1118,MusicAffectPsychophysiology2019,3.0.5,59.68091847609726,
To what extent did the music make you feel ,ASHAMED,30MonoWAV/30MonoS4.wav,1,1,3,12,,,,,1,1,17,11,0,5,5,4,,,,,,,,,1,1.4668613989997539,,,112,001,2019_Sep_11_1118,MusicAffectPsychophysiology2019,3.0.5,59.68091847609726,
To what extent did the music make you feel ,FRUSTRATED,30MonoWAV/30MonoS4.wav,1,1,3,12,,,,,1,1,17,11,0,6,6,3,,,,,,,,,1,0.7689341870063799,,,112,001,2019_Sep_11_1118,MusicAffectPsychophysiology2019,3.0.5,59.68091847609726,
To what extent did the music make you feel ,SCARED,30MonoWAV/30MonoS4.wav,1,1,3,12,,,,,1,1,17,11,0,7,7,11,,,,,,,,,1,1.835858159000054,,,112,001,2019_Sep_11_1118,MusicAffectPsychophysiology2019,3.0.5,59.68091847609726,
To what extent did the music make you feel ,SAD,30MonoWAV/30MonoS4.wav,1,1,3,12,,,,,1,1,17,11,0,8,8,0,,,,,,,,,1,1.1678837499930523,,,112,001,2019_Sep_11_1118,MusicAffectPsychophysiology2019,3.0.5,59.68091847609726,
To what extent did the music make you feel ,TENDER,30MonoWAV/30MonoS4.wav,1,1,3,12,,,,,1,1,17,11,0,9,9,10,,,,,,,,,5,1.4353670470009092,,,112,001,2019_Sep_11_1118,MusicAffectPsychophysiology2019,3.0.5,59.68091847609726,
To what extent did the music make you feel ,ACTIVE,30MonoWAV/30MonoS4.wav,1,1,3,12,,,,,1,1,17,11,0,10,10,9,,,,,,,,,2,1.517414476002159,,,112,001,2019_Sep_11_1118,MusicAffectPsychophysiology2019,3.0.5,59.68091847609726,
To what extent did the music make you feel ,ALERT,30MonoWAV/30MonoS4.wav,1,1,3,12,,,,,1,1,17,11,0,11,11,8,,,,,,,,,1,2.001352464001684,,,112,001,2019_Sep_11_1118,MusicAffectPsychophysiology2019,3.0.5,59.68091847609726,
,,30MonoWAV/30MonoS4.wav,1,1,3,12,,,,,1,1,17,11,,,,,,,,,,,,,,,,,112,001,2019_Sep_11_1118,MusicAffectPsychophysiology2019,3.0.5,59.68091847609726,
To what extent did the music make you feel ,ANXIOUS ,30MonoWAV/30MonoF1.wav,1,2,2,1,,,,,1,2,18,0,0,0,0,1,,,4,2.9702490030031186,1,1.368941366999934,3,1.6189009260051535,4,1.4867579109995859,,,112,001,2019_Sep_11_1118,MusicAffectPsychophysiology2019,3.0.5,59.68091847609726,
To what extent did the music make you feel ,ACTIVE,30MonoWAV/30MonoF1.wav,1,2,2,1,,,,,1,2,18,0,0,1,1,9,,,,,,,,,4,1.0388692150008865,,,112,001,2019_Sep_11_1118,MusicAffectPsychophysiology2019,3.0.5,59.68091847609726,
To what extent did the music make you feel ,SAD,30MonoWAV/30MonoF1.wav,1,2,2,1,,,,,1,2,18,0,0,2,2,0,,,,,,,,,1,0.9668859550001798,,,112,001,2019_Sep_11_1118,MusicAffectPsychophysiology2019,3.0.5,59.68091847609726,
To what extent did the music make you feel ,ASHAMED,30MonoWAV/30MonoF1.wav,1,2,2,1,,,,,1,2,18,0,0,3,3,4,,,,,,,,,1,0.9032443670002976,,,112,001,2019_Sep_11_1118,MusicAffectPsychophysiology2019,3.0.5,59.68091847609726,
To what extent did the music make you feel ,GUILTY,30MonoWAV/30MonoF1.wav,1,2,2,1,,,,,1,2,18,0,0,4,4,5,,,,,,,,,1,0.7865557460027048,,,112,001,2019_Sep_11_1118,MusicAffectPsychophysiology2019,3.0.5,59.68091847609726,
To what extent did the music make you feel ,FRUSTRATED,30MonoWAV/30MonoF1.wav,1,2,2,1,,,,,1,2,18,0,0,5,5,3,,,,,,,,,2,3.270455634999962,,,112,001,2019_Sep_11_1118,MusicAffectPsychophysiology2019,3.0.5,59.68091847609726,
To what extent did the music make you feel ,SCARED,30MonoWAV/30MonoF1.wav,1,2,2,1,,,,,1,2,18,0,0,6,6,11,,,,,,,,,2,2.5662683269983972,,,112,001,2019_Sep_11_1118,MusicAffectPsychophysiology2019,3.0.5,59.68091847609726,
To what extent did the music make you feel ,EXCITED,30MonoWAV/30MonoF1.wav,1,2,2,1,,,,,1,2,18,0,0,7,7,7,,,,,,,,,3,2.0363516439974774,,,112,001,2019_Sep_11_1118,MusicAffectPsychophysiology2019,3.0.5,59.68091847609726,
To what extent did the music make you feel ,HAPPY,30MonoWAV/30MonoF1.wav,1,2,2,1,,,,,1,2,18,0,0,8,8,6,,,,,,,,,1,0.7172814469959121,,,112,001,2019_Sep_11_1118,MusicAffectPsychophysiology2019,3.0.5,59.68091847609726,
To what extent did the music make you feel ,TENDER,30MonoWAV/30MonoF1.wav,1,2,2,1,,,,,1,2,18,0,0,9,9,10,,,,,,,,,1,0.8169292530001258,,,112,001,2019_Sep_11_1118,MusicAffectPsychophysiology2019,3.0.5,59.68091847609726,
To what extent did the music make you feel ,ALERT,30MonoWAV/30MonoF1.wav,1,2,2,1,,,,,1,2,18,0,0,10,10,8,,,,,,,,,5,1.5674999690018012,,,112,001,2019_Sep_11_1118,MusicAffectPsychophysiology2019,3.0.5,59.68091847609726,
To what extent did the music make you feel ,ANGRY,30MonoWAV/30MonoF1.wav,1,2,2,1,,,,,1,2,18,0,0,11,11,2,,,,,,,,,2,1.6685754680001992,,,112,001,2019_Sep_11_1118,MusicAffectPsychophysiology2019,3.0.5,59.68091847609726,
,,30MonoWAV/30MonoF1.wav,1,2,2,1,,,,,1,2,18,0,,,,,,,,,,,,,,,,,112,001,2019_Sep_11_1118,MusicAffectPsychophysiology2019,3.0.5,59.68091847609726,
To what extent did the music make you feel ,GUILTY,30MonoWAV/30MonoH1.wav,2,2,1,5,,,,,1,3,19,4,0,0,0,5,,,4,3.236348924001504,5,0.9692142710046028,4,1.635111183997651,1,1.2000180350005394,,,112,001,2019_Sep_11_1118,MusicAffectPsychophysiology2019,3.0.5,59.68091847609726,
To what extent did the music make you feel ,SAD,30MonoWAV/30MonoH1.wav,2,2,1,5,,,,,1,3,19,4,0,1,1,0,,,,,,,,,1,0.4861513309951988,,,112,001,2019_Sep_11_1118,MusicAffectPsychophysiology2019,3.0.5,59.68091847609726,
To what extent did the music make you feel ,TENDER,30MonoWAV/30MonoH1.wav,2,2,1,5,,,,,1,3,19,4,0,2,2,10,,,,,,,,,2,1.252772150997771,,,112,001,2019_Sep_11_1118,MusicAffectPsychophysiology2019,3.0.5,59.68091847609726,
To what extent did the music make you feel ,ACTIVE,30MonoWAV/30MonoH1.wav,2,2,1,5,,,,,1,3,19,4,0,3,3,9,,,,,,,,,4,1.0359061229974031,,,112,001,2019_Sep_11_1118,MusicAffectPsychophysiology2019,3.0.5,59.68091847609726,
To what extent did the music make you feel ,EXCITED,30MonoWAV/30MonoH1.wav,2,2,1,5,,,,,1,3,19,4,0,4,4,7,,,,,,,,,4,1.052399827996851,,,112,001,2019_Sep_11_1118,MusicAffectPsychophysiology2019,3.0.5,59.68091847609726,
To what extent did the music make you feel ,FRUSTRATED,30MonoWAV/30MonoH1.wav,2,2,1,5,,,,,1,3,19,4,0,5,5,3,,,,,,,,,1,0.863599358999636,,,112,001,2019_Sep_11_1118,MusicAffectPsychophysiology2019,3.0.5,59.68091847609726,
To what extent did the music make you feel ,ASHAMED,30MonoWAV/30MonoH1.wav,2,2,1,5,,,,,1,3,19,4,0,6,6,4,,,,,,,,,1,1.1361935610038927,,,112,001,2019_Sep_11_1118,MusicAffectPsychophysiology2019,3.0.5,59.68091847609726,
To what extent did the music make you feel ,ANXIOUS ,30MonoWAV/30MonoH1.wav,2,2,1,5,,,,,1,3,19,4,0,7,7,1,,,,,,,,,1,1.1685771370030125,,,112,001,2019_Sep_11_1118,MusicAffectPsychophysiology2019,3.0.5,59.68091847609726,
To what extent did the music make you feel ,SCARED,30MonoWAV/30MonoH1.wav,2,2,1,5,,,,,1,3,19,4,0,8,8,11,,,,,,,,,1,0.5347647090020473,,,112,001,2019_Sep_11_1118,MusicAffectPsychophysiology2019,3.0.5,59.68091847609726,
To what extent did the music make you feel ,ALERT,30MonoWAV/30MonoH1.wav,2,2,1,5,,,,,1,3,19,4,0,9,9,8,,,,,,,,,4,1.1194611699975212,,,112,001,2019_Sep_11_1118,MusicAffectPsychophysiology2019,3.0.5,59.68091847609726,
To what extent did the music make you feel ,ANGRY,30MonoWAV/30MonoH1.wav,2,2,1,5,,,,,1,3,19,4,0,10,10,2,,,,,,,,,1,0.5032602080027573,,,112,001,2019_Sep_11_1118,MusicAffectPsychophysiology2019,3.0.5,59.68091847609726,
To what extent did the music make you feel ,HAPPY,30MonoWAV/30MonoH1.wav,2,2,1,5,,,,,1,3,19,4,0,11,11,6,,,,,,,,,5,1.01891924499796,,,112,001,2019_Sep_11_1118,MusicAffectPsychophysiology2019,3.0.5,59.68091847609726,
,,30MonoWAV/30MonoH1.wav,2,2,1,5,,,,,1,3,19,4,,,,,,,,,,,,,,,,,112,001,2019_Sep_11_1118,MusicAffectPsychophysiology2019,3.0.5,59.68091847609726,
To what extent did the music make you feel ,ALERT,30MonoWAV/30MonoH2.wav,2,2,1,6,,,,,1,4,20,5,0,0,0,8,,,4,3.3531266800055164,4,1.7031213309965096,3,1.4530970200066804,4,1.3927372809994267,,,112,001,2019_Sep_11_1118,MusicAffectPsychophysiology2019,3.0.5,59.68091847609726,
To what extent did the music make you feel ,ANXIOUS ,30MonoWAV/30MonoH2.wav,2,2,1,6,,,,,1,4,20,5,0,1,1,1,,,,,,,,,1,1.5190410590003012,,,112,001,2019_Sep_11_1118,MusicAffectPsychophysiology2019,3.0.5,59.68091847609726,
To what extent did the music make you feel ,ACTIVE,30MonoWAV/30MonoH2.wav,2,2,1,6,,,,,1,4,20,5,0,2,2,9,,,,,,,,,4,0.9690643779977108,,,112,001,2019_Sep_11_1118,MusicAffectPsychophysiology2019,3.0.5,59.68091847609726,
To what extent did the music make you feel ,ASHAMED,30MonoWAV/30MonoH2.wav,2,2,1,6,,,,,1,4,20,5,0,3,3,4,,,,,,,,,1,0.6859284649981419,,,112,001,2019_Sep_11_1118,MusicAffectPsychophysiology2019,3.0.5,59.68091847609726,
To what extent did the music make you feel ,SAD,30MonoWAV/30MonoH2.wav,2,2,1,6,,,,,1,4,20,5,0,4,4,0,,,,,,,,,1,0.5681457840037183,,,112,001,2019_Sep_11_1118,MusicAffectPsychophysiology2019,3.0.5,59.68091847609726,
To what extent did the music make you feel ,ANGRY,30MonoWAV/30MonoH2.wav,2,2,1,6,,,,,1,4,20,5,0,5,5,2,,,,,,,,,1,0.6361325159959961,,,112,001,2019_Sep_11_1118,MusicAffectPsychophysiology2019,3.0.5,59.68091847609726,
To what extent did the music make you feel ,HAPPY,30MonoWAV/30MonoH2.wav,2,2,1,6,,,,,1,4,20,5,0,6,6,6,,,,,,,,,4,0.9360077399978763,,,112,001,2019_Sep_11_1118,MusicAffectPsychophysiology2019,3.0.5,59.68091847609726,
To what extent did the music make you feel ,TENDER,30MonoWAV/30MonoH2.wav,2,2,1,6,,,,,1,4,20,5,0,7,7,10,,,,,,,,,1,3.4855669499957003,,,112,001,2019_Sep_11_1118,MusicAffectPsychophysiology2019,3.0.5,59.68091847609726,
To what extent did the music make you feel ,EXCITED,30MonoWAV/30MonoH2.wav,2,2,1,6,,,,,1,4,20,5,0,8,8,7,,,,,,,,,5,1.8026314419985283,,,112,001,2019_Sep_11_1118,MusicAffectPsychophysiology2019,3.0.5,59.68091847609726,
To what extent did the music make you feel ,GUILTY,30MonoWAV/30MonoH2.wav,2,2,1,6,,,,,1,4,20,5,0,9,9,5,,,,,,,,,1,0.8026715340020019,,,112,001,2019_Sep_11_1118,MusicAffectPsychophysiology2019,3.0.5,59.68091847609726,
To what extent did the music make you feel ,FRUSTRATED,30MonoWAV/30MonoH2.wav,2,2,1,6,,,,,1,4,20,5,0,10,10,3,,,,,,,,,1,0.6722354119992815,,,112,001,2019_Sep_11_1118,MusicAffectPsychophysiology2019,3.0.5,59.68091847609726,
To what extent did the music make you feel ,SCARED,30MonoWAV/30MonoH2.wav,2,2,1,6,,,,,1,4,20,5,0,11,11,11,,,,,,,,,1,0.7859069589976571,,,112,001,2019_Sep_11_1118,MusicAffectPsychophysiology2019,3.0.5,59.68091847609726,
,,30MonoWAV/30MonoH2.wav,2,2,1,6,,,,,1,4,20,5,,,,,,,,,,,,,,,,,112,001,2019_Sep_11_1118,MusicAffectPsychophysiology2019,3.0.5,59.68091847609726,
To what extent did the music make you feel ,ANGRY,30MonoWAV/30MonoS3.wav,1,1,3,11,,,,,1,5,21,10,0,0,0,2,,,2,3.1535722449989407,1,1.4846064820012543,1,2.1690307009994285,1,0.9525605559974792,,,112,001,2019_Sep_11_1118,MusicAffectPsychophysiology2019,3.0.5,59.68091847609726,
To what extent did the music make you feel ,ANXIOUS ,30MonoWAV/30MonoS3.wav,1,1,3,11,,,,,1,5,21,10,0,1,1,1,,,,,,,,,1,0.7687368519982556,,,112,001,2019_Sep_11_1118,MusicAffectPsychophysiology2019,3.0.5,59.68091847609726,
To what extent did the music make you feel ,TENDER,30MonoWAV/30MonoS3.wav,1,1,3,11,,,,,1,5,21,10,0,2,2,10,,,,,,,,,1,0.7188911590055795,,,112,001,2019_Sep_11_1118,MusicAffectPsychophysiology2019,3.0.5,59.68091847609726,
To what extent did the music make you feel ,ACTIVE,30MonoWAV/30MonoS3.wav,1,1,3,11,,,,,1,5,21,10,0,3,3,9,,,,,,,,,2,1.0365148369965027,,,112,001,2019_Sep_11_1118,MusicAffectPsychophysiology2019,3.0.5,59.68091847609726,
To what extent did the music make you feel ,ASHAMED,30MonoWAV/30MonoS3.wav,1,1,3,11,,,,,1,5,21,10,0,4,4,4,,,,,,,,,1,3.96833082500234,,,112,001,2019_Sep_11_1118,MusicAffectPsychophysiology2019,3.0.5,59.68091847609726,
To what extent did the music make you feel ,GUILTY,30MonoWAV/30MonoS3.wav,1,1,3,11,,,,,1,5,21,10,0,5,5,5,,,,,,,,,1,1.1862483879958745,,,112,001,2019_Sep_11_1118,MusicAffectPsychophysiology2019,3.0.5,59.68091847609726,
To what extent did the music make you feel ,ALERT,30MonoWAV/30MonoS3.wav,1,1,3,11,,,,,1,5,21,10,0,6,6,8,,,,,,,,,2,1.8695103659993038,,,112,001,2019_Sep_11_1118,MusicAffectPsychophysiology2019,3.0.5,59.68091847609726,
To what extent did the music make you feel ,SCARED,30MonoWAV/30MonoS3.wav,1,1,3,11,,,,,1,5,21,10,0,7,7,11,,,,,,,,,2,1.1853938790009124,,,112,001,2019_Sep_11_1118,MusicAffectPsychophysiology2019,3.0.5,59.68091847609726,
To what extent did the music make you feel ,SAD,30MonoWAV/30MonoS3.wav,1,1,3,11,,,,,1,5,21,10,0,8,8,0,,,,,,,,,1,0.7367389850041945,,,112,001,2019_Sep_11_1118,MusicAffectPsychophysiology2019,3.0.5,59.68091847609726,
To what extent did the music make you feel ,HAPPY,30MonoWAV/30MonoS3.wav,1,1,3,11,,,,,1,5,21,10,0,9,9,6,,,,,,,,,1,0.9192595040003653,,,112,001,2019_Sep_11_1118,MusicAffectPsychophysiology2019,3.0.5,59.68091847609726,
To what extent did the music make you feel ,EXCITED,30MonoWAV/30MonoS3.wav,1,1,3,11,,,,,1,5,21,10,0,10,10,7,,,,,,,,,1,2.034845246002078,,,112,001,2019_Sep_11_1118,MusicAffectPsychophysiology2019,3.0.5,59.68091847609726,
To what extent did the music make you feel ,FRUSTRATED,30MonoWAV/30MonoS3.wav,1,1,3,11,,,,,1,5,21,10,0,11,11,3,,,,,,,,,1,1.2194344159943284,,,112,001,2019_Sep_11_1118,MusicAffectPsychophysiology2019,3.0.5,59.68091847609726,
,,30MonoWAV/30MonoS3.wav,1,1,3,11,,,,,1,5,21,10,,,,,,,,,,,,,,,,,112,001,2019_Sep_11_1118,MusicAffectPsychophysiology2019,3.0.5,59.68091847609726,
To what extent did the music make you feel ,ASHAMED,30MonoWAV/30MonoT2.wav,2,1,4,14,,,,,1,6,22,13,0,0,0,4,,,2,3.7694502800004557,5,1.9535285279998789,4,1.336084768998262,1,1.0128957670021919,,,112,001,2019_Sep_11_1118,MusicAffectPsychophysiology2019,3.0.5,59.68091847609726,
To what extent did the music make you feel ,FRUSTRATED,30MonoWAV/30MonoT2.wav,2,1,4,14,,,,,1,6,22,13,0,1,1,3,,,,,,,,,1,0.5031673870034865,,,112,001,2019_Sep_11_1118,MusicAffectPsychophysiology2019,3.0.5,59.68091847609726,
To what extent did the music make you feel ,TENDER,30MonoWAV/30MonoT2.wav,2,1,4,14,,,,,1,6,22,13,0,2,2,10,,,,,,,,,4,1.0364753760004533,,,112,001,2019_Sep_11_1118,MusicAffectPsychophysiology2019,3.0.5,59.68091847609726,
To what extent did the music make you feel ,SCARED,30MonoWAV/30MonoT2.wav,2,1,4,14,,,,,1,6,22,13,0,3,3,11,,,,,,,,,1,0.868909207994875,,,112,001,2019_Sep_11_1118,MusicAffectPsychophysiology2019,3.0.5,59.68091847609726,
To what extent did the music make you feel ,GUILTY,30MonoWAV/30MonoT2.wav,2,1,4,14,,,,,1,6,22,13,0,4,4,5,,,,,,,,,1,0.519107485000859,,,112,001,2019_Sep_11_1118,MusicAffectPsychophysiology2019,3.0.5,59.68091847609726,
To what extent did the music make you feel ,SAD,30MonoWAV/30MonoT2.wav,2,1,4,14,,,,,1,6,22,13,0,5,5,0,,,,,,,,,1,0.502666885004146,,,112,001,2019_Sep_11_1118,MusicAffectPsychophysiology2019,3.0.5,59.68091847609726,
To what extent did the music make you feel ,HAPPY,30MonoWAV/30MonoT2.wav,2,1,4,14,,,,,1,6,22,13,0,6,6,6,,,,,,,,,3,0.8862408219938516,,,112,001,2019_Sep_11_1118,MusicAffectPsychophysiology2019,3.0.5,59.68091847609726,
To what extent did the music make you feel ,ACTIVE,30MonoWAV/30MonoT2.wav,2,1,4,14,,,,,1,6,22,13,0,7,7,9,,,,,,,,,2,1.519316928999615,,,112,001,2019_Sep_11_1118,MusicAffectPsychophysiology2019,3.0.5,59.68091847609726,
To what extent did the music make you feel ,ANXIOUS ,30MonoWAV/30MonoT2.wav,2,1,4,14,,,,,1,6,22,13,0,8,8,1,,,,,,,,,1,3.0687193069970817,,,112,001,2019_Sep_11_1118,MusicAffectPsychophysiology2019,3.0.5,59.68091847609726,
To what extent did the music make you feel ,ALERT,30MonoWAV/30MonoT2.wav,2,1,4,14,,,,,1,6,22,13,0,9,9,8,,,,,,,,,3,1.266749233000155,,,112,001,2019_Sep_11_1118,MusicAffectPsychophysiology2019,3.0.5,59.68091847609726,
To what extent did the music make you feel ,ANGRY,30MonoWAV/30MonoT2.wav,2,1,4,14,,,,,1,6,22,13,0,10,10,2,,,,,,,,,1,0.602849196002353,,,112,001,2019_Sep_11_1118,MusicAffectPsychophysiology2019,3.0.5,59.68091847609726,
To what extent did the music make you feel ,EXCITED,30MonoWAV/30MonoT2.wav,2,1,4,14,,,,,1,6,22,13,0,11,11,7,,,,,,,,,3,1.1192690940006287,,,112,001,2019_Sep_11_1118,MusicAffectPsychophysiology2019,3.0.5,59.68091847609726,
,,30MonoWAV/30MonoT2.wav,2,1,4,14,,,,,1,6,22,13,,,,,,,,,,,,,,,,,112,001,2019_Sep_11_1118,MusicAffectPsychophysiology2019,3.0.5,59.68091847609726,
To what extent did the music make you feel ,SAD,30MonoWAV/30MonoS2.wav,1,1,3,10,,,,,1,7,23,9,0,0,0,0,,,1,3.7359803470026236,3,1.2864038870029617,2,1.6363292040041415,1,1.4387406839960022,,,112,001,2019_Sep_11_1118,MusicAffectPsychophysiology2019,3.0.5,59.68091847609726,
To what extent did the music make you feel ,GUILTY,30MonoWAV/30MonoS2.wav,1,1,3,10,,,,,1,7,23,9,0,1,1,5,,,,,,,,,1,0.6189389510036563,,,112,001,2019_Sep_11_1118,MusicAffectPsychophysiology2019,3.0.5,59.68091847609726,
To what extent did the music make you feel ,SCARED,30MonoWAV/30MonoS2.wav,1,1,3,10,,,,,1,7,23,9,0,2,2,11,,,,,,,,,1,0.9836076059946208,,,112,001,2019_Sep_11_1118,MusicAffectPsychophysiology2019,3.0.5,59.68091847609726,
To what extent did the music make you feel ,TENDER,30MonoWAV/30MonoS2.wav,1,1,3,10,,,,,1,7,23,9,0,3,3,10,,,,,,,,,3,1.3192079889995512,,,112,001,2019_Sep_11_1118,MusicAffectPsychophysiology2019,3.0.5,59.68091847609726,
To what extent did the music make you feel ,ANXIOUS ,30MonoWAV/30MonoS2.wav,1,1,3,10,,,,,1,7,23,9,0,4,4,1,,,,,,,,,1,0.8851966429938329,,,112,001,2019_Sep_11_1118,MusicAffectPsychophysiology2019,3.0.5,59.68091847609726,
To what extent did the music make you feel ,FRUSTRATED,30MonoWAV/30MonoS2.wav,1,1,3,10,,,,,1,7,23,9,0,5,5,3,,,,,,,,,1,0.8522561930003576,,,112,001,2019_Sep_11_1118,MusicAffectPsychophysiology2019,3.0.5,59.68091847609726,
To what extent did the music make you feel ,HAPPY,30MonoWAV/30MonoS2.wav,1,1,3,10,,,,,1,7,23,9,0,6,6,6,,,,,,,,,1,1.6862743319943547,,,112,001,2019_Sep_11_1118,MusicAffectPsychophysiology2019,3.0.5,59.68091847609726,
To what extent did the music make you feel ,ALERT,30MonoWAV/30MonoS2.wav,1,1,3,10,,,,,1,7,23,9,0,7,7,8,,,,,,,,,2,2.7195677010022337,,,112,001,2019_Sep_11_1118,MusicAffectPsychophysiology2019,3.0.5,59.68091847609726,
To what extent did the music make you feel ,ANGRY,30MonoWAV/30MonoS2.wav,1,1,3,10,,,,,1,7,23,9,0,8,8,2,,,,,,,,,1,0.884078920003958,,,112,001,2019_Sep_11_1118,MusicAffectPsychophysiology2019,3.0.5,59.68091847609726,
To what extent did the music make you feel ,ASHAMED,30MonoWAV/30MonoS2.wav,1,1,3,10,,,,,1,7,23,9,0,9,9,4,,,,,,,,,1,0.7520346249948489,,,112,001,2019_Sep_11_1118,MusicAffectPsychophysiology2019,3.0.5,59.68091847609726,
To what extent did the music make you feel ,EXCITED,30MonoWAV/30MonoS2.wav,1,1,3,10,,,,,1,7,23,9,0,10,10,7,,,,,,,,,1,0.9025532739979099,,,112,001,2019_Sep_11_1118,MusicAffectPsychophysiology2019,3.0.5,59.68091847609726,
To what extent did the music make you feel ,ACTIVE,30MonoWAV/30MonoS2.wav,1,1,3,10,,,,,1,7,23,9,0,11,11,9,,,,,,,,,1,0.7863629190032952,,,112,001,2019_Sep_11_1118,MusicAffectPsychophysiology2019,3.0.5,59.68091847609726,
,,30MonoWAV/30MonoS2.wav,1,1,3,10,,,,,1,7,23,9,,,,,,,,,,,,,,,,,112,001,2019_Sep_11_1118,MusicAffectPsychophysiology2019,3.0.5,59.68091847609726,
To what extent did the music make you feel ,HAPPY,30MonoWAV/30MonoF3.wav,1,2,2,3,,,,,1,8,24,2,0,0,0,6,,,4,2.5686128640008974,2,1.3188803359953454,2,5.968061528998078,1,0.9488728889991762,,,112,001,2019_Sep_11_1118,MusicAffectPsychophysiology2019,3.0.5,59.68091847609726,
To what extent did the music make you feel ,SCARED,30MonoWAV/30MonoF3.wav,1,2,2,3,,,,,1,8,24,2,0,1,1,11,,,,,,,,,1,1.153354007001326,,,112,001,2019_Sep_11_1118,MusicAffectPsychophysiology2019,3.0.5,59.68091847609726,
To what extent did the music make you feel ,ACTIVE,30MonoWAV/30MonoF3.wav,1,2,2,3,,,,,1,8,24,2,0,2,2,9,,,,,,,,,4,1.1693395280017285,,,112,001,2019_Sep_11_1118,MusicAffectPsychophysiology2019,3.0.5,59.68091847609726,
To what extent did the music make you feel ,ANGRY,30MonoWAV/30MonoF3.wav,1,2,2,3,,,,,1,8,24,2,0,3,3,2,,,,,,,,,2,1.2519964039965998,,,112,001,2019_Sep_11_1118,MusicAffectPsychophysiology2019,3.0.5,59.68091847609726,
To what extent did the music make you feel ,ASHAMED,30MonoWAV/30MonoF3.wav,1,2,2,3,,,,,1,8,24,2,0,4,4,4,,,,,,,,,1,0.9530234770063544,,,112,001,2019_Sep_11_1118,MusicAffectPsychophysiology2019,3.0.5,59.68091847609726,
To what extent did the music make you feel ,FRUSTRATED,30MonoWAV/30MonoF3.wav,1,2,2,3,,,,,1,8,24,2,0,5,5,3,,,,,,,,,1,2.1702626690021134,,,112,001,2019_Sep_11_1118,MusicAffectPsychophysiology2019,3.0.5,59.68091847609726,
To what extent did the music make you feel ,EXCITED,30MonoWAV/30MonoF3.wav,1,2,2,3,,,,,1,8,24,2,0,6,6,7,,,,,,,,,3,1.8357808650034713,,,112,001,2019_Sep_11_1118,MusicAffectPsychophysiology2019,3.0.5,59.68091847609726,
To what extent did the music make you feel ,ALERT,30MonoWAV/30MonoF3.wav,1,2,2,3,,,,,1,8,24,2,0,7,7,8,,,,,,,,,4,1.0033560279989615,,,112,001,2019_Sep_11_1118,MusicAffectPsychophysiology2019,3.0.5,59.68091847609726,
To what extent did the music make you feel ,SAD,30MonoWAV/30MonoF3.wav,1,2,2,3,,,,,1,8,24,2,0,8,8,0,,,,,,,,,1,0.6358357549979701,,,112,001,2019_Sep_11_1118,MusicAffectPsychophysiology2019,3.0.5,59.68091847609726,
To what extent did the music make you feel ,TENDER,30MonoWAV/30MonoF3.wav,1,2,2,3,,,,,1,8,24,2,0,9,9,10,,,,,,,,,1,0.8526871360008954,,,112,001,2019_Sep_11_1118,MusicAffectPsychophysiology2019,3.0.5,59.68091847609726,
To what extent did the music make you feel ,ANXIOUS ,30MonoWAV/30MonoF3.wav,1,2,2,3,,,,,1,8,24,2,0,10,10,1,,,,,,,,,2,1.184086553999805,,,112,001,2019_Sep_11_1118,MusicAffectPsychophysiology2019,3.0.5,59.68091847609726,
To what extent did the music make you feel ,GUILTY,30MonoWAV/30MonoF3.wav,1,2,2,3,,,,,1,8,24,2,0,11,11,5,,,,,,,,,1,0.8533236200019019,,,112,001,2019_Sep_11_1118,MusicAffectPsychophysiology2019,3.0.5,59.68091847609726,
,,30MonoWAV/30MonoF3.wav,1,2,2,3,,,,,1,8,24,2,,,,,,,,,,,,,,,,,112,001,2019_Sep_11_1118,MusicAffectPsychophysiology2019,3.0.5,59.68091847609726,
To what extent did the music make you feel ,ANGRY,30MonoWAV/30MonoF4.wav,1,2,2,4,,,,,1,9,25,3,0,0,0,2,,,4,3.752840503999323,1,1.11898431499867,3,1.486182403001294,1,1.1428009329974884,,,112,001,2019_Sep_11_1118,MusicAffectPsychophysiology2019,3.0.5,59.68091847609726,
To what extent did the music make you feel ,EXCITED,30MonoWAV/30MonoF4.wav,1,2,2,4,,,,,1,9,25,3,0,1,1,7,,,,,,,,,4,0.9036603290005587,,,112,001,2019_Sep_11_1118,MusicAffectPsychophysiology2019,3.0.5,59.68091847609726,
To what extent did the music make you feel ,FRUSTRATED,30MonoWAV/30MonoF4.wav,1,2,2,4,,,,,1,9,25,3,0,2,2,3,,,,,,,,,1,1.7918371850028052,,,112,001,2019_Sep_11_1118,MusicAffectPsychophysiology2019,3.0.5,59.68091847609726,
To what extent did the music make you feel ,ALERT,30MonoWAV/30MonoF4.wav,1,2,2,4,,,,,1,9,25,3,0,3,3,8,,,,,,,,,4,0.8861211930052377,,,112,001,2019_Sep_11_1118,MusicAffectPsychophysiology2019,3.0.5,59.68091847609726,
To what extent did the music make you feel ,HAPPY,30MonoWAV/30MonoF4.wav,1,2,2,4,,,,,1,9,25,3,0,4,4,6,,,,,,,,,1,1.1356815460021608,,,112,001,2019_Sep_11_1118,MusicAffectPsychophysiology2019,3.0.5,59.68091847609726,
To what extent did the music make you feel ,SAD,30MonoWAV/30MonoF4.wav,1,2,2,4,,,,,1,9,25,3,0,5,5,0,,,,,,,,,1,0.9033218070035218,,,112,001,2019_Sep_11_1118,MusicAffectPsychophysiology2019,3.0.5,59.68091847609726,
To what extent did the music make you feel ,TENDER,30MonoWAV/30MonoF4.wav,1,2,2,4,,,,,1,9,25,3,0,6,6,10,,,,,,,,,1,0.7862559190034517,,,112,001,2019_Sep_11_1118,MusicAffectPsychophysiology2019,3.0.5,59.68091847609726,
To what extent did the music make you feel ,GUILTY,30MonoWAV/30MonoF4.wav,1,2,2,4,,,,,1,9,25,3,0,7,7,5,,,,,,,,,1,0.835161472998152,,,112,001,2019_Sep_11_1118,MusicAffectPsychophysiology2019,3.0.5,59.68091847609726,
To what extent did the music make you feel ,SCARED,30MonoWAV/30MonoF4.wav,1,2,2,4,,,,,1,9,25,3,0,8,8,11,,,,,,,,,2,0.95171515000402,,,112,001,2019_Sep_11_1118,MusicAffectPsychophysiology2019,3.0.5,59.68091847609726,
To what extent did the music make you feel ,ACTIVE,30MonoWAV/30MonoF4.wav,1,2,2,4,,,,,1,9,25,3,0,9,9,9,,,,,,,,,4,1.1189382739976281,,,112,001,2019_Sep_11_1118,MusicAffectPsychophysiology2019,3.0.5,59.68091847609726,
To what extent did the music make you feel ,ASHAMED,30MonoWAV/30MonoF4.wav,1,2,2,4,,,,,1,9,25,3,0,10,10,4,,,,,,,,,1,0.8033130169933429,,,112,001,2019_Sep_11_1118,MusicAffectPsychophysiology2019,3.0.5,59.68091847609726,
To what extent did the music make you feel ,ANXIOUS ,30MonoWAV/30MonoF4.wav,1,2,2,4,,,,,1,9,25,3,0,11,11,1,,,,,,,,,2,0.85003072800464,,,112,001,2019_Sep_11_1118,MusicAffectPsychophysiology2019,3.0.5,59.68091847609726,
,,30MonoWAV/30MonoF4.wav,1,2,2,4,,,,,1,9,25,3,,,,,,,,,,,,,,,,,112,001,2019_Sep_11_1118,MusicAffectPsychophysiology2019,3.0.5,59.68091847609726,
To what extent did the music make you feel ,ACTIVE,30MonoWAV/30MonoH4.wav,2,2,1,8,,,,,1,10,26,7,0,0,0,9,,,4,3.1861568720050855,5,1.2186995169977308,4,3.885500594995392,4,1.3532393529967521,,,112,001,2019_Sep_11_1118,MusicAffectPsychophysiology2019,3.0.5,59.68091847609726,
To what extent did the music make you feel ,SCARED,30MonoWAV/30MonoH4.wav,2,2,1,8,,,,,1,10,26,7,0,1,1,11,,,,,,,,,1,0.7850372579996474,,,112,001,2019_Sep_11_1118,MusicAffectPsychophysiology2019,3.0.5,59.68091847609726,
To what extent did the music make you feel ,ANXIOUS ,30MonoWAV/30MonoH4.wav,2,2,1,8,,,,,1,10,26,7,0,2,2,1,,,,,,,,,1,0.7366771300003165,,,112,001,2019_Sep_11_1118,MusicAffectPsychophysiology2019,3.0.5,59.68091847609726,
To what extent did the music make you feel ,TENDER,30MonoWAV/30MonoH4.wav,2,2,1,8,,,,,1,10,26,7,0,3,3,10,,,,,,,,,3,1.902463019003335,,,112,001,2019_Sep_11_1118,MusicAffectPsychophysiology2019,3.0.5,59.68091847609726,
To what extent did the music make you feel ,GUILTY,30MonoWAV/30MonoH4.wav,2,2,1,8,,,,,1,10,26,7,0,4,4,5,,,,,,,,,1,0.5853300050002872,,,112,001,2019_Sep_11_1118,MusicAffectPsychophysiology2019,3.0.5,59.68091847609726,
To what extent did the music make you feel ,FRUSTRATED,30MonoWAV/30MonoH4.wav,2,2,1,8,,,,,1,10,26,7,0,5,5,3,,,,,,,,,1,1.1180650219976087,,,112,001,2019_Sep_11_1118,MusicAffectPsychophysiology2019,3.0.5,59.68091847609726,
To what extent did the music make you feel ,EXCITED,30MonoWAV/30MonoH4.wav,2,2,1,8,,,,,1,10,26,7,0,6,6,7,,,,,,,,,4,1.3856100369957858,,,112,001,2019_Sep_11_1118,MusicAffectPsychophysiology2019,3.0.5,59.68091847609726,
To what extent did the music make you feel ,SAD,30MonoWAV/30MonoH4.wav,2,2,1,8,,,,,1,10,26,7,0,7,7,0,,,,,,,,,1,1.1670716540029389,,,112,001,2019_Sep_11_1118,MusicAffectPsychophysiology2019,3.0.5,59.68091847609726,
To what extent did the music make you feel ,ANGRY,30MonoWAV/30MonoH4.wav,2,2,1,8,,,,,1,10,26,7,0,8,8,2,,,,,,,,,1,1.3705056350008817,,,112,001,2019_Sep_11_1118,MusicAffectPsychophysiology2019,3.0.5,59.68091847609726,
To what extent did the music make you feel ,ALERT,30MonoWAV/30MonoH4.wav,2,2,1,8,,,,,1,10,26,7,0,9,9,8,,,,,,,,,4,2.6361957020053524,,,112,001,2019_Sep_11_1118,MusicAffectPsychophysiology2019,3.0.5,59.68091847609726,
To what extent did the music make you feel ,ASHAMED,30MonoWAV/30MonoH4.wav,2,2,1,8,,,,,1,10,26,7,0,10,10,4,,,,,,,,,1,0.784173116000602,,,112,001,2019_Sep_11_1118,MusicAffectPsychophysiology2019,3.0.5,59.68091847609726,
To what extent did the music make you feel ,HAPPY,30MonoWAV/30MonoH4.wav,2,2,1,8,,,,,1,10,26,7,0,11,11,6,,,,,,,,,4,0.8696870599960675,,,112,001,2019_Sep_11_1118,MusicAffectPsychophysiology2019,3.0.5,59.68091847609726,
,,30MonoWAV/30MonoH4.wav,2,2,1,8,,,,,1,10,26,7,,,,,,,,,,,,,,,,,112,001,2019_Sep_11_1118,MusicAffectPsychophysiology2019,3.0.5,59.68091847609726,
To what extent did the music make you feel ,FRUSTRATED,30MonoWAV/30MonoF2.wav,1,2,2,2,,,,,1,11,27,1,0,0,0,3,,,3,4.318381266995857,1,0.9031559190043481,2,1.1196661020003376,1,1.5528299919969868,,,112,001,2019_Sep_11_1118,MusicAffectPsychophysiology2019,3.0.5,59.68091847609726,
To what extent did the music make you feel ,SAD,30MonoWAV/30MonoF2.wav,1,2,2,2,,,,,1,11,27,1,0,1,1,0,,,,,,,,,1,0.8690573700005189,,,112,001,2019_Sep_11_1118,MusicAffectPsychophysiology2019,3.0.5,59.68091847609726,
To what extent did the music make you feel ,ANXIOUS ,30MonoWAV/30MonoF2.wav,1,2,2,2,,,,,1,11,27,1,0,2,2,1,,,,,,,,,5,2.253100634996372,,,112,001,2019_Sep_11_1118,MusicAffectPsychophysiology2019,3.0.5,59.68091847609726,
To what extent did the music make you feel ,TENDER,30MonoWAV/30MonoF2.wav,1,2,2,2,,,,,1,11,27,1,0,3,3,10,,,,,,,,,1,0.7851340120032546,,,112,001,2019_Sep_11_1118,MusicAffectPsychophysiology2019,3.0.5,59.68091847609726,
To what extent did the music make you feel ,ASHAMED,30MonoWAV/30MonoF2.wav,1,2,2,2,,,,,1,11,27,1,0,4,4,4,,,,,,,,,1,1.0193905159976566,,,112,001,2019_Sep_11_1118,MusicAffectPsychophysiology2019,3.0.5,59.68091847609726,
To what extent did the music make you feel ,EXCITED,30MonoWAV/30MonoF2.wav,1,2,2,2,,,,,1,11,27,1,0,5,5,7,,,,,,,,,2,1.1022113540020655,,,112,001,2019_Sep_11_1118,MusicAffectPsychophysiology2019,3.0.5,59.68091847609726,
To what extent did the music make you feel ,HAPPY,30MonoWAV/30MonoF2.wav,1,2,2,2,,,,,1,11,27,1,0,6,6,6,,,,,,,,,1,0.7510160229940084,,,112,001,2019_Sep_11_1118,MusicAffectPsychophysiology2019,3.0.5,59.68091847609726,
To what extent did the music make you feel ,ANGRY,30MonoWAV/30MonoF2.wav,1,2,2,2,,,,,1,11,27,1,0,7,7,2,,,,,,,,,1,1.0862741480013938,,,112,001,2019_Sep_11_1118,MusicAffectPsychophysiology2019,3.0.5,59.68091847609726,
To what extent did the music make you feel ,ACTIVE,30MonoWAV/30MonoF2.wav,1,2,2,2,,,,,1,11,27,1,0,8,8,9,,,,,,,,,4,1.235430822998751,,,112,001,2019_Sep_11_1118,MusicAffectPsychophysiology2019,3.0.5,59.68091847609726,
To what extent did the music make you feel ,GUILTY,30MonoWAV/30MonoF2.wav,1,2,2,2,,,,,1,11,27,1,0,9,9,5,,,,,,,,,1,0.6500800860012532,,,112,001,2019_Sep_11_1118,MusicAffectPsychophysiology2019,3.0.5,59.68091847609726,
To what extent did the music make you feel ,SCARED,30MonoWAV/30MonoF2.wav,1,2,2,2,,,,,1,11,27,1,0,10,10,11,,,,,,,,,3,1.886238963001233,,,112,001,2019_Sep_11_1118,MusicAffectPsychophysiology2019,3.0.5,59.68091847609726,
To what extent did the music make you feel ,ALERT,30MonoWAV/30MonoF2.wav,1,2,2,2,,,,,1,11,27,1,0,11,11,8,,,,,,,,,4,1.0185831269991468,,,112,001,2019_Sep_11_1118,MusicAffectPsychophysiology2019,3.0.5,59.68091847609726,
,,30MonoWAV/30MonoF2.wav,1,2,2,2,,,,,1,11,27,1,,,,,,,,,,,,,,,,,112,001,2019_Sep_11_1118,MusicAffectPsychophysiology2019,3.0.5,59.68091847609726,
To what extent did the music make you feel ,ANGRY,30MonoWAV/30MonoS1.wav,1,1,3,9,,,,,1,12,28,8,0,0,0,2,,,2,4.034249766002176,5,1.9864767949984525,3,2.2353833300003316,1,0.6887326520009083,,,112,001,2019_Sep_11_1118,MusicAffectPsychophysiology2019,3.0.5,59.68091847609726,
To what extent did the music make you feel ,EXCITED,30MonoWAV/30MonoS1.wav,1,1,3,9,,,,,1,12,28,8,0,1,1,7,,,,,,,,,1,0.9507150880017434,,,112,001,2019_Sep_11_1118,MusicAffectPsychophysiology2019,3.0.5,59.68091847609726,
To what extent did the music make you feel ,ALERT,30MonoWAV/30MonoS1.wav,1,1,3,9,,,,,1,12,28,8,0,2,2,8,,,,,,,,,1,0.7686968490015715,,,112,001,2019_Sep_11_1118,MusicAffectPsychophysiology2019,3.0.5,59.68091847609726,
To what extent did the music make you feel ,ACTIVE,30MonoWAV/30MonoS1.wav,1,1,3,9,,,,,1,12,28,8,0,3,3,9,,,,,,,,,2,1.2518223919978482,,,112,001,2019_Sep_11_1118,MusicAffectPsychophysiology2019,3.0.5,59.68091847609726,
To what extent did the music make you feel ,ASHAMED,30MonoWAV/30MonoS1.wav,1,1,3,9,,,,,1,12,28,8,0,4,4,4,,,,,,,,,1,0.6360341660038102,,,112,001,2019_Sep_11_1118,MusicAffectPsychophysiology2019,3.0.5,59.68091847609726,
To what extent did the music make you feel ,ANXIOUS ,30MonoWAV/30MonoS1.wav,1,1,3,9,,,,,1,12,28,8,0,5,5,1,,,,,,,,,1,0.5690262900025118,,,112,001,2019_Sep_11_1118,MusicAffectPsychophysiology2019,3.0.5,59.68091847609726,
To what extent did the music make you feel ,SCARED,30MonoWAV/30MonoS1.wav,1,1,3,9,,,,,1,12,28,8,0,6,6,11,,,,,,,,,1,0.7533066830001189,,,112,001,2019_Sep_11_1118,MusicAffectPsychophysiology2019,3.0.5,59.68091847609726,
To what extent did the music make you feel ,FRUSTRATED,30MonoWAV/30MonoS1.wav,1,1,3,9,,,,,1,12,28,8,0,7,7,3,,,,,,,,,1,0.7711513610047405,,,112,001,2019_Sep_11_1118,MusicAffectPsychophysiology2019,3.0.5,59.68091847609726,
To what extent did the music make you feel ,SAD,30MonoWAV/30MonoS1.wav,1,1,3,9,,,,,1,12,28,8,0,8,8,0,,,,,,,,,1,0.6369932070010691,,,112,001,2019_Sep_11_1118,MusicAffectPsychophysiology2019,3.0.5,59.68091847609726,
To what extent did the music make you feel ,HAPPY,30MonoWAV/30MonoS1.wav,1,1,3,9,,,,,1,12,28,8,0,9,9,6,,,,,,,,,3,1.5166419460001634,,,112,001,2019_Sep_11_1118,MusicAffectPsychophysiology2019,3.0.5,59.68091847609726,
To what extent did the music make you feel ,GUILTY,30MonoWAV/30MonoS1.wav,1,1,3,9,,,,,1,12,28,8,0,10,10,5,,,,,,,,,1,1.384178090003843,,,112,001,2019_Sep_11_1118,MusicAffectPsychophysiology2019,3.0.5,59.68091847609726,
To what extent did the music make you feel ,TENDER,30MonoWAV/30MonoS1.wav,1,1,3,9,,,,,1,12,28,8,0,11,11,10,,,,,,,,,5,1.8697008379967883,,,112,001,2019_Sep_11_1118,MusicAffectPsychophysiology2019,3.0.5,59.68091847609726,
,,30MonoWAV/30MonoS1.wav,1,1,3,9,,,,,1,12,28,8,,,,,,,,,,,,,,,,,112,001,2019_Sep_11_1118,MusicAffectPsychophysiology2019,3.0.5,59.68091847609726,
To what extent did the music make you feel ,ASHAMED,30MonoWAV/30MonoT1.wav,2,1,4,13,,,,,1,13,29,12,0,0,0,4,,,1,2.918814108001243,4,1.60247753400472,4,1.9853769160035881,1,1.0165856069943402,,,112,001,2019_Sep_11_1118,MusicAffectPsychophysiology2019,3.0.5,59.68091847609726,
To what extent did the music make you feel ,ACTIVE,30MonoWAV/30MonoT1.wav,2,1,4,13,,,,,1,13,29,12,0,1,1,9,,,,,,,,,2,3.069052742997883,,,112,001,2019_Sep_11_1118,MusicAffectPsychophysiology2019,3.0.5,59.68091847609726,
To what extent did the music make you feel ,SAD,30MonoWAV/30MonoT1.wav,2,1,4,13,,,,,1,13,29,12,0,2,2,0,,,,,,,,,1,1.6180405550039723,,,112,001,2019_Sep_11_1118,MusicAffectPsychophysiology2019,3.0.5,59.68091847609726,
To what extent did the music make you feel ,ANXIOUS ,30MonoWAV/30MonoT1.wav,2,1,4,13,,,,,1,13,29,12,0,3,3,1,,,,,,,,,1,0.8026787130002049,,,112,001,2019_Sep_11_1118,MusicAffectPsychophysiology2019,3.0.5,59.68091847609726,
To what extent did the music make you feel ,TENDER,30MonoWAV/30MonoT1.wav,2,1,4,13,,,,,1,13,29,12,0,4,4,10,,,,,,,,,4,1.4530064170030528,,,112,001,2019_Sep_11_1118,MusicAffectPsychophysiology2019,3.0.5,59.68091847609726,
To what extent did the music make you feel ,GUILTY,30MonoWAV/30MonoT1.wav,2,1,4,13,,,,,1,13,29,12,0,5,5,5,,,,,,,,,1,2.001844919002906,,,112,001,2019_Sep_11_1118,MusicAffectPsychophysiology2019,3.0.5,59.68091847609726,
To what extent did the music make you feel ,HAPPY,30MonoWAV/30MonoT1.wav,2,1,4,13,,,,,1,13,29,12,0,6,6,6,,,,,,,,,3,1.3347155789961107,,,112,001,2019_Sep_11_1118,MusicAffectPsychophysiology2019,3.0.5,59.68091847609726,
To what extent did the music make you feel ,FRUSTRATED,30MonoWAV/30MonoT1.wav,2,1,4,13,,,,,1,13,29,12,0,7,7,3,,,,,,,,,1,0.7303095479946933,,,112,001,2019_Sep_11_1118,MusicAffectPsychophysiology2019,3.0.5,59.68091847609726,
To what extent did the music make you feel ,EXCITED,30MonoWAV/30MonoT1.wav,2,1,4,13,,,,,1,13,29,12,0,8,8,7,,,,,,,,,2,1.620148224006698,,,112,001,2019_Sep_11_1118,MusicAffectPsychophysiology2019,3.0.5,59.68091847609726,
To what extent did the music make you feel ,ALERT,30MonoWAV/30MonoT1.wav,2,1,4,13,,,,,1,13,29,12,0,9,9,8,,,,,,,,,2,1.7525030239994521,,,112,001,2019_Sep_11_1118,MusicAffectPsychophysiology2019,3.0.5,59.68091847609726,
To what extent did the music make you feel ,SCARED,30MonoWAV/30MonoT1.wav,2,1,4,13,,,,,1,13,29,12,0,10,10,11,,,,,,,,,1,1.1526426909986185,,,112,001,2019_Sep_11_1118,MusicAffectPsychophysiology2019,3.0.5,59.68091847609726,
To what extent did the music make you feel ,ANGRY,30MonoWAV/30MonoT1.wav,2,1,4,13,,,,,1,13,29,12,0,11,11,2,,,,,,,,,1,0.6687617520001368,,,112,001,2019_Sep_11_1118,MusicAffectPsychophysiology2019,3.0.5,59.68091847609726,
,,30MonoWAV/30MonoT1.wav,2,1,4,13,,,,,1,13,29,12,,,,,,,,,,,,,,,,,112,001,2019_Sep_11_1118,MusicAffectPsychophysiology2019,3.0.5,59.68091847609726,
To what extent did the music make you feel ,ANGRY,30MonoWAV/30MonoT3.wav,2,1,4,15,,,,,1,14,30,14,0,0,0,2,,,2,4.768808337001246,5,1.3363808009962668,4,1.5856666050021886,1,1.0033062750007957,,,112,001,2019_Sep_11_1118,MusicAffectPsychophysiology2019,3.0.5,59.68091847609726,
To what extent did the music make you feel ,SCARED,30MonoWAV/30MonoT3.wav,2,1,4,15,,,,,1,14,30,14,0,1,1,11,,,,,,,,,1,0.6862488539991318,,,112,001,2019_Sep_11_1118,MusicAffectPsychophysiology2019,3.0.5,59.68091847609726,
To what extent did the music make you feel ,ASHAMED,30MonoWAV/30MonoT3.wav,2,1,4,15,,,,,1,14,30,14,0,2,2,4,,,,,,,,,1,1.035951809004473,,,112,001,2019_Sep_11_1118,MusicAffectPsychophysiology2019,3.0.5,59.68091847609726,
To what extent did the music make you feel ,SAD,30MonoWAV/30MonoT3.wav,2,1,4,15,,,,,1,14,30,14,0,3,3,0,,,,,,,,,1,0.8530251789998147,,,112,001,2019_Sep_11_1118,MusicAffectPsychophysiology2019,3.0.5,59.68091847609726,
To what extent did the music make you feel ,ACTIVE,30MonoWAV/30MonoT3.wav,2,1,4,15,,,,,1,14,30,14,0,4,4,9,,,,,,,,,2,1.185659773000225,,,112,001,2019_Sep_11_1118,MusicAffectPsychophysiology2019,3.0.5,59.68091847609726,
To what extent did the music make you feel ,GUILTY,30MonoWAV/30MonoT3.wav,2,1,4,15,,,,,1,14,30,14,0,5,5,5,,,,,,,,,1,0.6195061570033431,,,112,001,2019_Sep_11_1118,MusicAffectPsychophysiology2019,3.0.5,59.68091847609726,
To what extent did the music make you feel ,ANXIOUS ,30MonoWAV/30MonoT3.wav,2,1,4,15,,,,,1,14,30,14,0,6,6,1,,,,,,,,,1,0.9035981890046969,,,112,001,2019_Sep_11_1118,MusicAffectPsychophysiology2019,3.0.5,59.68091847609726,
To what extent did the music make you feel ,FRUSTRATED,30MonoWAV/30MonoT3.wav,2,1,4,15,,,,,1,14,30,14,0,7,7,3,,,,,,,,,1,0.6241982730061864,,,112,001,2019_Sep_11_1118,MusicAffectPsychophysiology2019,3.0.5,59.68091847609726,
To what extent did the music make you feel ,HAPPY,30MonoWAV/30MonoT3.wav,2,1,4,15,,,,,1,14,30,14,0,8,8,6,,,,,,,,,3,1.6362209789949702,,,112,001,2019_Sep_11_1118,MusicAffectPsychophysiology2019,3.0.5,59.68091847609726,
To what extent did the music make you feel ,TENDER,30MonoWAV/30MonoT3.wav,2,1,4,15,,,,,1,14,30,14,0,9,9,10,,,,,,,,,4,0.9348341999939294,,,112,001,2019_Sep_11_1118,MusicAffectPsychophysiology2019,3.0.5,59.68091847609726,
To what extent did the music make you feel ,EXCITED,30MonoWAV/30MonoT3.wav,2,1,4,15,,,,,1,14,30,14,0,10,10,7,,,,,,,,,2,1.1196227030013688,,,112,001,2019_Sep_11_1118,MusicAffectPsychophysiology2019,3.0.5,59.68091847609726,
To what extent did the music make you feel ,ALERT,30MonoWAV/30MonoT3.wav,2,1,4,15,,,,,1,14,30,14,0,11,11,8,,,,,,,,,2,1.9501517940007034,,,112,001,2019_Sep_11_1118,MusicAffectPsychophysiology2019,3.0.5,59.68091847609726,
,,30MonoWAV/30MonoT3.wav,2,1,4,15,,,,,1,14,30,14,,,,,,,,,,,,,,,,,112,001,2019_Sep_11_1118,MusicAffectPsychophysiology2019,3.0.5,59.68091847609726,
To what extent did the music make you feel ,ALERT,30MonoWAV/30MonoH3.wav,2,2,1,7,,,,,1,15,31,6,0,0,0,8,,,4,2.784933192000608,4,1.8686178130010376,4,1.7698000489981496,3,1.5354388380001183,,,112,001,2019_Sep_11_1118,MusicAffectPsychophysiology2019,3.0.5,59.68091847609726,
To what extent did the music make you feel ,ASHAMED,30MonoWAV/30MonoH3.wav,2,2,1,7,,,,,1,15,31,6,0,1,1,4,,,,,,,,,1,0.7858195059961872,,,112,001,2019_Sep_11_1118,MusicAffectPsychophysiology2019,3.0.5,59.68091847609726,
To what extent did the music make you feel ,EXCITED,30MonoWAV/30MonoH3.wav,2,2,1,7,,,,,1,15,31,6,0,2,2,7,,,,,,,,,4,1.0695574380006292,,,112,001,2019_Sep_11_1118,MusicAffectPsychophysiology2019,3.0.5,59.68091847609726,
To what extent did the music make you feel ,TENDER,30MonoWAV/30MonoH3.wav,2,2,1,7,,,,,1,15,31,6,0,3,3,10,,,,,,,,,1,1.21989685799781,,,112,001,2019_Sep_11_1118,MusicAffectPsychophysiology2019,3.0.5,59.68091847609726,
To what extent did the music make you feel ,ACTIVE,30MonoWAV/30MonoH3.wav,2,2,1,7,,,,,1,15,31,6,0,4,4,9,,,,,,,,,4,1.0191022049984895,,,112,001,2019_Sep_11_1118,MusicAffectPsychophysiology2019,3.0.5,59.68091847609726,
To what extent did the music make you feel ,SAD,30MonoWAV/30MonoH3.wav,2,2,1,7,,,,,1,15,31,6,0,5,5,0,,,,,,,,,1,0.6359962510032346,,,112,001,2019_Sep_11_1118,MusicAffectPsychophysiology2019,3.0.5,59.68091847609726,
To what extent did the music make you feel ,HAPPY,30MonoWAV/30MonoH3.wav,2,2,1,7,,,,,1,15,31,6,0,6,6,6,,,,,,,,,4,1.0190363380024792,,,112,001,2019_Sep_11_1118,MusicAffectPsychophysiology2019,3.0.5,59.68091847609726,
To what extent did the music make you feel ,ANXIOUS ,30MonoWAV/30MonoH3.wav,2,2,1,7,,,,,1,15,31,6,0,7,7,1,,,,,,,,,1,1.3347847830009414,,,112,001,2019_Sep_11_1118,MusicAffectPsychophysiology2019,3.0.5,59.68091847609726,
To what extent did the music make you feel ,ANGRY,30MonoWAV/30MonoH3.wav,2,2,1,7,,,,,1,15,31,6,0,8,8,2,,,,,,,,,1,0.8369185440024012,,,112,001,2019_Sep_11_1118,MusicAffectPsychophysiology2019,3.0.5,59.68091847609726,
To what extent did the music make you feel ,GUILTY,30MonoWAV/30MonoH3.wav,2,2,1,7,,,,,1,15,31,6,0,9,9,5,,,,,,,,,1,0.6697420050040819,,,112,001,2019_Sep_11_1118,MusicAffectPsychophysiology2019,3.0.5,59.68091847609726,
To what extent did the music make you feel ,SCARED,30MonoWAV/30MonoH3.wav,2,2,1,7,,,,,1,15,31,6,0,10,10,11,,,,,,,,,1,0.5186009860044578,,,112,001,2019_Sep_11_1118,MusicAffectPsychophysiology2019,3.0.5,59.68091847609726,
To what extent did the music make you feel ,FRUSTRATED,30MonoWAV/30MonoH3.wav,2,2,1,7,,,,,1,15,31,6,0,11,11,3,,,,,,,,,1,0.569312927997089,,,112,001,2019_Sep_11_1118,MusicAffectPsychophysiology2019,3.0.5,59.68091847609726,
,,30MonoWAV/30MonoH3.wav,2,2,1,7,,,,,1,15,31,6,,,,,,,,,,,,,,,,,112,001,2019_Sep_11_1118,MusicAffectPsychophysiology2019,3.0.5,59.68091847609726,
,,,,,,,,,,,,,,,,,,,,,,,,,,,,,space,4.152577976004977,112,001,2019_Sep_11_1118,MusicAffectPsychophysiology2019,3.0.5,59.68091847609726,
