Instruction,Word,song,valence,arousal,affectcat,songmark,pracwords.thisRepN,pracwords.thisTrialN,pracwords.thisN,pracwords.thisIndex,songtrials.thisRepN,songtrials.thisTrialN,songtrials.thisN,songtrials.thisIndex,words.thisRepN,words.thisTrialN,words.thisN,words.thisIndex,begin.keys,begin.rt,arousalkey.keys,arousalkey.rt,valencekey.keys,valencekey.rt,likekey.keys,likekey.rt,WordResponse.keys,WordResponse.rt,key_resp_2.keys,key_resp_2.rt,participant,session,date,expName,psychopyVersion,frameRate,
,,,,,,,,,,,,,,,,,,,space,17.12085258300067,,,,,,,,,,,113,001,2019_Sep_11_1516,MusicAffectPsychophysiology2019,3.0.5,60.09529105821871,
,,,,,,,,,,,,,,,,,,,,,3,14.917590883997036,,,,,,,,,113,001,2019_Sep_11_1516,MusicAffectPsychophysiology2019,3.0.5,60.09529105821871,
,,,,,,,,,,,,,,,,,,,,,,,3,7.034100636999938,,,,,,,113,001,2019_Sep_11_1516,MusicAffectPsychophysiology2019,3.0.5,60.09529105821871,
,,,,,,,,,,,,,,,,,,,,,,,,,2,7.969177465995017,,,,,113,001,2019_Sep_11_1516,MusicAffectPsychophysiology2019,3.0.5,60.09529105821871,
To what extent did the music make you feel ,ASHAMED,,,,,,0,0,0,4,,,,,,,,,,,,,,,,,1,4.894743061995541,,,113,001,2019_Sep_11_1516,MusicAffectPsychophysiology2019,3.0.5,60.09529105821871,
To what extent did the music make you feel ,EXCITED,,,,,,0,1,1,7,,,,,,,,,,,,,,,,,3,2.724995916003536,,,113,001,2019_Sep_11_1516,MusicAffectPsychophysiology2019,3.0.5,60.09529105821871,
To what extent did the music make you feel ,HAPPY,,,,,,0,2,2,6,,,,,,,,,,,,,,,,,3,4.150692083996546,,,113,001,2019_Sep_11_1516,MusicAffectPsychophysiology2019,3.0.5,60.09529105821871,
To what extent did the music make you feel ,ANGRY,,,,,,0,3,3,2,,,,,,,,,,,,,,,,,2,4.103707814996596,,,113,001,2019_Sep_11_1516,MusicAffectPsychophysiology2019,3.0.5,60.09529105821871,
To what extent did the music make you feel ,ALERT,,,,,,0,4,4,8,,,,,,,,,,,,,,,,,4,2.1357217430049786,,,113,001,2019_Sep_11_1516,MusicAffectPsychophysiology2019,3.0.5,60.09529105821871,
To what extent did the music make you feel ,ACTIVE,,,,,,0,5,5,9,,,,,,,,,,,,,,,,,2,1.9026105820012162,,,113,001,2019_Sep_11_1516,MusicAffectPsychophysiology2019,3.0.5,60.09529105821871,
To what extent did the music make you feel ,TENDER,,,,,,0,6,6,10,,,,,,,,,,,,,,,,,3,1.5021571710021817,,,113,001,2019_Sep_11_1516,MusicAffectPsychophysiology2019,3.0.5,60.09529105821871,
To what extent did the music make you feel ,SCARED,,,,,,0,7,7,11,,,,,,,,,,,,,,,,,2,1.7682243570015999,,,113,001,2019_Sep_11_1516,MusicAffectPsychophysiology2019,3.0.5,60.09529105821871,
To what extent did the music make you feel ,SAD,,,,,,0,8,8,0,,,,,,,,,,,,,,,,,1,2.4683885120030027,,,113,001,2019_Sep_11_1516,MusicAffectPsychophysiology2019,3.0.5,60.09529105821871,
To what extent did the music make you feel ,FRUSTRATED,,,,,,0,9,9,3,,,,,,,,,,,,,,,,,2,1.955581390997395,,,113,001,2019_Sep_11_1516,MusicAffectPsychophysiology2019,3.0.5,60.09529105821871,
To what extent did the music make you feel ,GUILTY,,,,,,0,10,10,5,,,,,,,,,,,,,,,,,1,1.135855228996661,,,113,001,2019_Sep_11_1516,MusicAffectPsychophysiology2019,3.0.5,60.09529105821871,
To what extent did the music make you feel ,ANXIOUS ,,,,,,0,11,11,1,,,,,,,,,,,,,,,,,2,1.6531469359979383,,,113,001,2019_Sep_11_1516,MusicAffectPsychophysiology2019,3.0.5,60.09529105821871,
To what extent did the music make you feel ,ACTIVE,30MonoWAV/30MonoF2.wav,1,2,2,2,,,,,0,0,0,1,0,0,0,9,,,4,5.799970519001363,2,4.1524821829953,3,4.168703684998036,3,4.584887461998733,,,113,001,2019_Sep_11_1516,MusicAffectPsychophysiology2019,3.0.5,60.09529105821871,
To what extent did the music make you feel ,ANGRY,30MonoWAV/30MonoF2.wav,1,2,2,2,,,,,0,0,0,1,0,1,1,2,,,,,,,,,1,2.2024988470002427,,,113,001,2019_Sep_11_1516,MusicAffectPsychophysiology2019,3.0.5,60.09529105821871,
To what extent did the music make you feel ,ANXIOUS ,30MonoWAV/30MonoF2.wav,1,2,2,2,,,,,0,0,0,1,0,2,2,1,,,,,,,,,3,1.8513762210059213,,,113,001,2019_Sep_11_1516,MusicAffectPsychophysiology2019,3.0.5,60.09529105821871,
To what extent did the music make you feel ,ALERT,30MonoWAV/30MonoF2.wav,1,2,2,2,,,,,0,0,0,1,0,3,3,8,,,,,,,,,4,1.4004311789976782,,,113,001,2019_Sep_11_1516,MusicAffectPsychophysiology2019,3.0.5,60.09529105821871,
To what extent did the music make you feel ,HAPPY,30MonoWAV/30MonoF2.wav,1,2,2,2,,,,,0,0,0,1,0,4,4,6,,,,,,,,,2,1.8185842710008728,,,113,001,2019_Sep_11_1516,MusicAffectPsychophysiology2019,3.0.5,60.09529105821871,
To what extent did the music make you feel ,SCARED,30MonoWAV/30MonoF2.wav,1,2,2,2,,,,,0,0,0,1,0,5,5,11,,,,,,,,,2,1.585012731004099,,,113,001,2019_Sep_11_1516,MusicAffectPsychophysiology2019,3.0.5,60.09529105821871,
To what extent did the music make you feel ,EXCITED,30MonoWAV/30MonoF2.wav,1,2,2,2,,,,,0,0,0,1,0,6,6,7,,,,,,,,,3,1.118581856993842,,,113,001,2019_Sep_11_1516,MusicAffectPsychophysiology2019,3.0.5,60.09529105821871,
To what extent did the music make you feel ,TENDER,30MonoWAV/30MonoF2.wav,1,2,2,2,,,,,0,0,0,1,0,7,7,10,,,,,,,,,2,2.286528399999952,,,113,001,2019_Sep_11_1516,MusicAffectPsychophysiology2019,3.0.5,60.09529105821871,
To what extent did the music make you feel ,FRUSTRATED,30MonoWAV/30MonoF2.wav,1,2,2,2,,,,,0,0,0,1,0,8,8,3,,,,,,,,,1,1.1866137010001694,,,113,001,2019_Sep_11_1516,MusicAffectPsychophysiology2019,3.0.5,60.09529105821871,
To what extent did the music make you feel ,ASHAMED,30MonoWAV/30MonoF2.wav,1,2,2,2,,,,,0,0,0,1,0,9,9,4,,,,,,,,,1,0.93353945799754,,,113,001,2019_Sep_11_1516,MusicAffectPsychophysiology2019,3.0.5,60.09529105821871,
To what extent did the music make you feel ,GUILTY,30MonoWAV/30MonoF2.wav,1,2,2,2,,,,,0,0,0,1,0,10,10,5,,,,,,,,,1,0.802782558996114,,,113,001,2019_Sep_11_1516,MusicAffectPsychophysiology2019,3.0.5,60.09529105821871,
To what extent did the music make you feel ,SAD,30MonoWAV/30MonoF2.wav,1,2,2,2,,,,,0,0,0,1,0,11,11,0,,,,,,,,,1,2.56769913899916,,,113,001,2019_Sep_11_1516,MusicAffectPsychophysiology2019,3.0.5,60.09529105821871,
,,30MonoWAV/30MonoF2.wav,1,2,2,2,,,,,0,0,0,1,,,,,,,,,,,,,,,,,113,001,2019_Sep_11_1516,MusicAffectPsychophysiology2019,3.0.5,60.09529105821871,
To what extent did the music make you feel ,GUILTY,30MonoWAV/30MonoF1.wav,1,2,2,1,,,,,0,1,1,0,0,0,0,5,,,4,4.152126272005262,2,4.0521306919981726,2,1.6366839590045856,1,2.4749702109984355,,,113,001,2019_Sep_11_1516,MusicAffectPsychophysiology2019,3.0.5,60.09529105821871,
To what extent did the music make you feel ,ANGRY,30MonoWAV/30MonoF1.wav,1,2,2,1,,,,,0,1,1,0,0,1,1,2,,,,,,,,,2,1.384428339995793,,,113,001,2019_Sep_11_1516,MusicAffectPsychophysiology2019,3.0.5,60.09529105821871,
To what extent did the music make you feel ,ASHAMED,30MonoWAV/30MonoF1.wav,1,2,2,1,,,,,0,1,1,0,0,2,2,4,,,,,,,,,1,0.769857896004396,,,113,001,2019_Sep_11_1516,MusicAffectPsychophysiology2019,3.0.5,60.09529105821871,
To what extent did the music make you feel ,HAPPY,30MonoWAV/30MonoF1.wav,1,2,2,1,,,,,0,1,1,0,0,3,3,6,,,,,,,,,2,1.1853532289969735,,,113,001,2019_Sep_11_1516,MusicAffectPsychophysiology2019,3.0.5,60.09529105821871,
To what extent did the music make you feel ,ACTIVE,30MonoWAV/30MonoF1.wav,1,2,2,1,,,,,0,1,1,0,0,4,4,9,,,,,,,,,3,1.5165218820038717,,,113,001,2019_Sep_11_1516,MusicAffectPsychophysiology2019,3.0.5,60.09529105821871,
To what extent did the music make you feel ,ANXIOUS ,30MonoWAV/30MonoF1.wav,1,2,2,1,,,,,0,1,1,0,0,5,5,1,,,,,,,,,3,1.4855148580027162,,,113,001,2019_Sep_11_1516,MusicAffectPsychophysiology2019,3.0.5,60.09529105821871,
To what extent did the music make you feel ,SAD,30MonoWAV/30MonoF1.wav,1,2,2,1,,,,,0,1,1,0,0,6,6,0,,,,,,,,,1,1.203032040000835,,,113,001,2019_Sep_11_1516,MusicAffectPsychophysiology2019,3.0.5,60.09529105821871,
To what extent did the music make you feel ,EXCITED,30MonoWAV/30MonoF1.wav,1,2,2,1,,,,,0,1,1,0,0,7,7,7,,,,,,,,,2,1.1185444520015153,,,113,001,2019_Sep_11_1516,MusicAffectPsychophysiology2019,3.0.5,60.09529105821871,
To what extent did the music make you feel ,TENDER,30MonoWAV/30MonoF1.wav,1,2,2,1,,,,,0,1,1,0,0,8,8,10,,,,,,,,,2,0.9530737540044356,,,113,001,2019_Sep_11_1516,MusicAffectPsychophysiology2019,3.0.5,60.09529105821871,
To what extent did the music make you feel ,FRUSTRATED,30MonoWAV/30MonoF1.wav,1,2,2,1,,,,,0,1,1,0,0,9,9,3,,,,,,,,,1,0.9586465210013557,,,113,001,2019_Sep_11_1516,MusicAffectPsychophysiology2019,3.0.5,60.09529105821871,
To what extent did the music make you feel ,SCARED,30MonoWAV/30MonoF1.wav,1,2,2,1,,,,,0,1,1,0,0,10,10,11,,,,,,,,,1,1.4169383330008714,,,113,001,2019_Sep_11_1516,MusicAffectPsychophysiology2019,3.0.5,60.09529105821871,
To what extent did the music make you feel ,ALERT,30MonoWAV/30MonoF1.wav,1,2,2,1,,,,,0,1,1,0,0,11,11,8,,,,,,,,,4,1.3196876250003697,,,113,001,2019_Sep_11_1516,MusicAffectPsychophysiology2019,3.0.5,60.09529105821871,
,,30MonoWAV/30MonoF1.wav,1,2,2,1,,,,,0,1,1,0,,,,,,,,,,,,,,,,,113,001,2019_Sep_11_1516,MusicAffectPsychophysiology2019,3.0.5,60.09529105821871,
To what extent did the music make you feel ,ASHAMED,30MonoWAV/30MonoH3.wav,2,2,1,7,,,,,0,2,2,6,0,0,0,4,,,5,4.218605677000596,4,1.9365535590040963,4,1.9859301840042463,1,2.1019565140013583,,,113,001,2019_Sep_11_1516,MusicAffectPsychophysiology2019,3.0.5,60.09529105821871,
To what extent did the music make you feel ,SAD,30MonoWAV/30MonoH3.wav,2,2,1,7,,,,,0,2,2,6,0,1,1,0,,,,,,,,,1,0.7365786810041755,,,113,001,2019_Sep_11_1516,MusicAffectPsychophysiology2019,3.0.5,60.09529105821871,
To what extent did the music make you feel ,TENDER,30MonoWAV/30MonoH3.wav,2,2,1,7,,,,,0,2,2,6,0,2,2,10,,,,,,,,,2,1.7524810030008666,,,113,001,2019_Sep_11_1516,MusicAffectPsychophysiology2019,3.0.5,60.09529105821871,
To what extent did the music make you feel ,SCARED,30MonoWAV/30MonoH3.wav,2,2,1,7,,,,,0,2,2,6,0,3,3,11,,,,,,,,,1,0.917236977002176,,,113,001,2019_Sep_11_1516,MusicAffectPsychophysiology2019,3.0.5,60.09529105821871,
To what extent did the music make you feel ,HAPPY,30MonoWAV/30MonoH3.wav,2,2,1,7,,,,,0,2,2,6,0,4,4,6,,,,,,,,,4,1.7870211269982974,,,113,001,2019_Sep_11_1516,MusicAffectPsychophysiology2019,3.0.5,60.09529105821871,
To what extent did the music make you feel ,ANGRY,30MonoWAV/30MonoH3.wav,2,2,1,7,,,,,0,2,2,6,0,5,5,2,,,,,,,,,1,1.7180692800029647,,,113,001,2019_Sep_11_1516,MusicAffectPsychophysiology2019,3.0.5,60.09529105821871,
To what extent did the music make you feel ,ALERT,30MonoWAV/30MonoH3.wav,2,2,1,7,,,,,0,2,2,6,0,6,6,8,,,,,,,,,3,2.951550682002562,,,113,001,2019_Sep_11_1516,MusicAffectPsychophysiology2019,3.0.5,60.09529105821871,
To what extent did the music make you feel ,FRUSTRATED,30MonoWAV/30MonoH3.wav,2,2,1,7,,,,,0,2,2,6,0,7,7,3,,,,,,,,,1,1.235822659000405,,,113,001,2019_Sep_11_1516,MusicAffectPsychophysiology2019,3.0.5,60.09529105821871,
To what extent did the music make you feel ,EXCITED,30MonoWAV/30MonoH3.wav,2,2,1,7,,,,,0,2,2,6,0,8,8,7,,,,,,,,,5,1.5030275489989435,,,113,001,2019_Sep_11_1516,MusicAffectPsychophysiology2019,3.0.5,60.09529105821871,
To what extent did the music make you feel ,GUILTY,30MonoWAV/30MonoH3.wav,2,2,1,7,,,,,0,2,2,6,0,9,9,5,,,,,,,,,1,0.9701363860003767,,,113,001,2019_Sep_11_1516,MusicAffectPsychophysiology2019,3.0.5,60.09529105821871,
To what extent did the music make you feel ,ANXIOUS ,30MonoWAV/30MonoH3.wav,2,2,1,7,,,,,0,2,2,6,0,10,10,1,,,,,,,,,1,0.7192451640003128,,,113,001,2019_Sep_11_1516,MusicAffectPsychophysiology2019,3.0.5,60.09529105821871,
To what extent did the music make you feel ,ACTIVE,30MonoWAV/30MonoH3.wav,2,2,1,7,,,,,0,2,2,6,0,11,11,9,,,,,,,,,4,1.3686195910049719,,,113,001,2019_Sep_11_1516,MusicAffectPsychophysiology2019,3.0.5,60.09529105821871,
,,30MonoWAV/30MonoH3.wav,2,2,1,7,,,,,0,2,2,6,,,,,,,,,,,,,,,,,113,001,2019_Sep_11_1516,MusicAffectPsychophysiology2019,3.0.5,60.09529105821871,
To what extent did the music make you feel ,SCARED,30MonoWAV/30MonoS2.wav,1,1,3,10,,,,,0,3,3,9,0,0,0,11,,,1,4.802698204999615,2,2.8017722949953168,4,4.702224795000802,1,2.1120867159988848,,,113,001,2019_Sep_11_1516,MusicAffectPsychophysiology2019,3.0.5,60.09529105821871,
To what extent did the music make you feel ,TENDER,30MonoWAV/30MonoS2.wav,1,1,3,10,,,,,0,3,3,9,0,1,1,10,,,,,,,,,1,1.36803083599807,,,113,001,2019_Sep_11_1516,MusicAffectPsychophysiology2019,3.0.5,60.09529105821871,
To what extent did the music make you feel ,HAPPY,30MonoWAV/30MonoS2.wav,1,1,3,10,,,,,0,3,3,9,0,2,2,6,,,,,,,,,2,3.1526633969988325,,,113,001,2019_Sep_11_1516,MusicAffectPsychophysiology2019,3.0.5,60.09529105821871,
To what extent did the music make you feel ,EXCITED,30MonoWAV/30MonoS2.wav,1,1,3,10,,,,,0,3,3,9,0,3,3,7,,,,,,,,,2,2.2510266979952576,,,113,001,2019_Sep_11_1516,MusicAffectPsychophysiology2019,3.0.5,60.09529105821871,
To what extent did the music make you feel ,ASHAMED,30MonoWAV/30MonoS2.wav,1,1,3,10,,,,,0,3,3,9,0,4,4,4,,,,,,,,,1,1.436420618003467,,,113,001,2019_Sep_11_1516,MusicAffectPsychophysiology2019,3.0.5,60.09529105821871,
To what extent did the music make you feel ,ALERT,30MonoWAV/30MonoS2.wav,1,1,3,10,,,,,0,3,3,9,0,5,5,8,,,,,,,,,3,1.5870894050021889,,,113,001,2019_Sep_11_1516,MusicAffectPsychophysiology2019,3.0.5,60.09529105821871,
To what extent did the music make you feel ,FRUSTRATED,30MonoWAV/30MonoS2.wav,1,1,3,10,,,,,0,3,3,9,0,6,6,3,,,,,,,,,1,0.9442653639998753,,,113,001,2019_Sep_11_1516,MusicAffectPsychophysiology2019,3.0.5,60.09529105821871,
To what extent did the music make you feel ,ANGRY,30MonoWAV/30MonoS2.wav,1,1,3,10,,,,,0,3,3,9,0,7,7,2,,,,,,,,,1,1.7362276319981902,,,113,001,2019_Sep_11_1516,MusicAffectPsychophysiology2019,3.0.5,60.09529105821871,
To what extent did the music make you feel ,GUILTY,30MonoWAV/30MonoS2.wav,1,1,3,10,,,,,0,3,3,9,0,8,8,5,,,,,,,,,1,1.369356848001189,,,113,001,2019_Sep_11_1516,MusicAffectPsychophysiology2019,3.0.5,60.09529105821871,
To what extent did the music make you feel ,ANXIOUS ,30MonoWAV/30MonoS2.wav,1,1,3,10,,,,,0,3,3,9,0,9,9,1,,,,,,,,,1,1.102708717000496,,,113,001,2019_Sep_11_1516,MusicAffectPsychophysiology2019,3.0.5,60.09529105821871,
To what extent did the music make you feel ,ACTIVE,30MonoWAV/30MonoS2.wav,1,1,3,10,,,,,0,3,3,9,0,10,10,9,,,,,,,,,1,2.3021884900008445,,,113,001,2019_Sep_11_1516,MusicAffectPsychophysiology2019,3.0.5,60.09529105821871,
To what extent did the music make you feel ,SAD,30MonoWAV/30MonoS2.wav,1,1,3,10,,,,,0,3,3,9,0,11,11,0,,,,,,,,,4,2.385866124997847,,,113,001,2019_Sep_11_1516,MusicAffectPsychophysiology2019,3.0.5,60.09529105821871,
,,30MonoWAV/30MonoS2.wav,1,1,3,10,,,,,0,3,3,9,,,,,,,,,,,,,,,,,113,001,2019_Sep_11_1516,MusicAffectPsychophysiology2019,3.0.5,60.09529105821871,
To what extent did the music make you feel ,GUILTY,30MonoWAV/30MonoH4.wav,2,2,1,8,,,,,0,4,4,7,0,0,0,5,,,4,4.100690913997823,4,1.38619344199833,3,1.8522044389974326,1,1.7198951120008132,,,113,001,2019_Sep_11_1516,MusicAffectPsychophysiology2019,3.0.5,60.09529105821871,
To what extent did the music make you feel ,TENDER,30MonoWAV/30MonoH4.wav,2,2,1,8,,,,,0,4,4,7,0,1,1,10,,,,,,,,,1,0.7363299889984773,,,113,001,2019_Sep_11_1516,MusicAffectPsychophysiology2019,3.0.5,60.09529105821871,
To what extent did the music make you feel ,EXCITED,30MonoWAV/30MonoH4.wav,2,2,1,8,,,,,0,4,4,7,0,2,2,7,,,,,,,,,4,1.1019956449963502,,,113,001,2019_Sep_11_1516,MusicAffectPsychophysiology2019,3.0.5,60.09529105821871,
To what extent did the music make you feel ,HAPPY,30MonoWAV/30MonoH4.wav,2,2,1,8,,,,,0,4,4,7,0,3,3,6,,,,,,,,,5,3.117228351999074,,,113,001,2019_Sep_11_1516,MusicAffectPsychophysiology2019,3.0.5,60.09529105821871,
To what extent did the music make you feel ,ALERT,30MonoWAV/30MonoH4.wav,2,2,1,8,,,,,0,4,4,7,0,4,4,8,,,,,,,,,3,1.134385541001393,,,113,001,2019_Sep_11_1516,MusicAffectPsychophysiology2019,3.0.5,60.09529105821871,
To what extent did the music make you feel ,ASHAMED,30MonoWAV/30MonoH4.wav,2,2,1,8,,,,,0,4,4,7,0,5,5,4,,,,,,,,,1,1.2165715469964198,,,113,001,2019_Sep_11_1516,MusicAffectPsychophysiology2019,3.0.5,60.09529105821871,
To what extent did the music make you feel ,ANXIOUS ,30MonoWAV/30MonoH4.wav,2,2,1,8,,,,,0,4,4,7,0,6,6,1,,,,,,,,,1,1.4191142569980002,,,113,001,2019_Sep_11_1516,MusicAffectPsychophysiology2019,3.0.5,60.09529105821871,
To what extent did the music make you feel ,SAD,30MonoWAV/30MonoH4.wav,2,2,1,8,,,,,0,4,4,7,0,7,7,0,,,,,,,,,1,1.0519039799983148,,,113,001,2019_Sep_11_1516,MusicAffectPsychophysiology2019,3.0.5,60.09529105821871,
To what extent did the music make you feel ,FRUSTRATED,30MonoWAV/30MonoH4.wav,2,2,1,8,,,,,0,4,4,7,0,8,8,3,,,,,,,,,1,0.9015205089963274,,,113,001,2019_Sep_11_1516,MusicAffectPsychophysiology2019,3.0.5,60.09529105821871,
To what extent did the music make you feel ,ACTIVE,30MonoWAV/30MonoH4.wav,2,2,1,8,,,,,0,4,4,7,0,9,9,9,,,,,,,,,4,1.119066176994238,,,113,001,2019_Sep_11_1516,MusicAffectPsychophysiology2019,3.0.5,60.09529105821871,
To what extent did the music make you feel ,ANGRY,30MonoWAV/30MonoH4.wav,2,2,1,8,,,,,0,4,4,7,0,10,10,2,,,,,,,,,1,0.9189523969980655,,,113,001,2019_Sep_11_1516,MusicAffectPsychophysiology2019,3.0.5,60.09529105821871,
To what extent did the music make you feel ,SCARED,30MonoWAV/30MonoH4.wav,2,2,1,8,,,,,0,4,4,7,0,11,11,11,,,,,,,,,1,1.1334977060032543,,,113,001,2019_Sep_11_1516,MusicAffectPsychophysiology2019,3.0.5,60.09529105821871,
,,30MonoWAV/30MonoH4.wav,2,2,1,8,,,,,0,4,4,7,,,,,,,,,,,,,,,,,113,001,2019_Sep_11_1516,MusicAffectPsychophysiology2019,3.0.5,60.09529105821871,
To what extent did the music make you feel ,SAD,30MonoWAV/30MonoS3.wav,1,1,3,11,,,,,0,5,5,10,0,0,0,0,,,2,3.9513287160007167,2,2.0695743299947935,4,1.6205158719967585,3,5.829460945999017,,,113,001,2019_Sep_11_1516,MusicAffectPsychophysiology2019,3.0.5,60.09529105821871,
To what extent did the music make you feel ,ACTIVE,30MonoWAV/30MonoS3.wav,1,1,3,11,,,,,0,5,5,10,0,1,1,9,,,,,,,,,3,1.4698946189964772,,,113,001,2019_Sep_11_1516,MusicAffectPsychophysiology2019,3.0.5,60.09529105821871,
To what extent did the music make you feel ,EXCITED,30MonoWAV/30MonoS3.wav,1,1,3,11,,,,,0,5,5,10,0,2,2,7,,,,,,,,,2,1.553902947998722,,,113,001,2019_Sep_11_1516,MusicAffectPsychophysiology2019,3.0.5,60.09529105821871,
To what extent did the music make you feel ,GUILTY,30MonoWAV/30MonoS3.wav,1,1,3,11,,,,,0,5,5,10,0,3,3,5,,,,,,,,,1,2.151787548995344,,,113,001,2019_Sep_11_1516,MusicAffectPsychophysiology2019,3.0.5,60.09529105821871,
To what extent did the music make you feel ,ALERT,30MonoWAV/30MonoS3.wav,1,1,3,11,,,,,0,5,5,10,0,4,4,8,,,,,,,,,3,1.2021681020050892,,,113,001,2019_Sep_11_1516,MusicAffectPsychophysiology2019,3.0.5,60.09529105821871,
To what extent did the music make you feel ,TENDER,30MonoWAV/30MonoS3.wav,1,1,3,11,,,,,0,5,5,10,0,5,5,10,,,,,,,,,1,1.6030630009991,,,113,001,2019_Sep_11_1516,MusicAffectPsychophysiology2019,3.0.5,60.09529105821871,
To what extent did the music make you feel ,HAPPY,30MonoWAV/30MonoS3.wav,1,1,3,11,,,,,0,5,5,10,0,6,6,6,,,,,,,,,1,1.268289529994945,,,113,001,2019_Sep_11_1516,MusicAffectPsychophysiology2019,3.0.5,60.09529105821871,
To what extent did the music make you feel ,ANGRY,30MonoWAV/30MonoS3.wav,1,1,3,11,,,,,0,5,5,10,0,7,7,2,,,,,,,,,2,3.718744051999238,,,113,001,2019_Sep_11_1516,MusicAffectPsychophysiology2019,3.0.5,60.09529105821871,
To what extent did the music make you feel ,SCARED,30MonoWAV/30MonoS3.wav,1,1,3,11,,,,,0,5,5,10,0,8,8,11,,,,,,,,,1,1.5167722900005174,,,113,001,2019_Sep_11_1516,MusicAffectPsychophysiology2019,3.0.5,60.09529105821871,
To what extent did the music make you feel ,ASHAMED,30MonoWAV/30MonoS3.wav,1,1,3,11,,,,,0,5,5,10,0,9,9,4,,,,,,,,,1,2.5856022049993044,,,113,001,2019_Sep_11_1516,MusicAffectPsychophysiology2019,3.0.5,60.09529105821871,
To what extent did the music make you feel ,ANXIOUS ,30MonoWAV/30MonoS3.wav,1,1,3,11,,,,,0,5,5,10,0,10,10,1,,,,,,,,,2,1.3344487259964808,,,113,001,2019_Sep_11_1516,MusicAffectPsychophysiology2019,3.0.5,60.09529105821871,
To what extent did the music make you feel ,FRUSTRATED,30MonoWAV/30MonoS3.wav,1,1,3,11,,,,,0,5,5,10,0,11,11,3,,,,,,,,,1,1.5867524569985108,,,113,001,2019_Sep_11_1516,MusicAffectPsychophysiology2019,3.0.5,60.09529105821871,
,,30MonoWAV/30MonoS3.wav,1,1,3,11,,,,,0,5,5,10,,,,,,,,,,,,,,,,,113,001,2019_Sep_11_1516,MusicAffectPsychophysiology2019,3.0.5,60.09529105821871,
To what extent did the music make you feel ,FRUSTRATED,30MonoWAV/30MonoT2.wav,2,1,4,14,,,,,0,6,6,13,0,0,0,3,,,3,4.235415939001541,4,2.2017430280029657,5,1.3034799870001734,1,2.536547009993228,,,113,001,2019_Sep_11_1516,MusicAffectPsychophysiology2019,3.0.5,60.09529105821871,
To what extent did the music make you feel ,HAPPY,30MonoWAV/30MonoT2.wav,2,1,4,14,,,,,0,6,6,13,0,1,1,6,,,,,,,,,4,2.552607962003094,,,113,001,2019_Sep_11_1516,MusicAffectPsychophysiology2019,3.0.5,60.09529105821871,
To what extent did the music make you feel ,SCARED,30MonoWAV/30MonoT2.wav,2,1,4,14,,,,,0,6,6,13,0,2,2,11,,,,,,,,,1,1.4194827070023166,,,113,001,2019_Sep_11_1516,MusicAffectPsychophysiology2019,3.0.5,60.09529105821871,
To what extent did the music make you feel ,GUILTY,30MonoWAV/30MonoT2.wav,2,1,4,14,,,,,0,6,6,13,0,3,3,5,,,,,,,,,1,0.817674824000278,,,113,001,2019_Sep_11_1516,MusicAffectPsychophysiology2019,3.0.5,60.09529105821871,
To what extent did the music make you feel ,TENDER,30MonoWAV/30MonoT2.wav,2,1,4,14,,,,,0,6,6,13,0,4,4,10,,,,,,,,,1,0.9372757570017711,,,113,001,2019_Sep_11_1516,MusicAffectPsychophysiology2019,3.0.5,60.09529105821871,
To what extent did the music make you feel ,ALERT,30MonoWAV/30MonoT2.wav,2,1,4,14,,,,,0,6,6,13,0,5,5,8,,,,,,,,,3,1.4034263650028151,,,113,001,2019_Sep_11_1516,MusicAffectPsychophysiology2019,3.0.5,60.09529105821871,
To what extent did the music make you feel ,EXCITED,30MonoWAV/30MonoT2.wav,2,1,4,14,,,,,0,6,6,13,0,6,6,7,,,,,,,,,4,1.2688287509954534,,,113,001,2019_Sep_11_1516,MusicAffectPsychophysiology2019,3.0.5,60.09529105821871,
To what extent did the music make you feel ,ANXIOUS ,30MonoWAV/30MonoT2.wav,2,1,4,14,,,,,0,6,6,13,0,7,7,1,,,,,,,,,1,1.95103763500083,,,113,001,2019_Sep_11_1516,MusicAffectPsychophysiology2019,3.0.5,60.09529105821871,
To what extent did the music make you feel ,ASHAMED,30MonoWAV/30MonoT2.wav,2,1,4,14,,,,,0,6,6,13,0,8,8,4,,,,,,,,,1,1.1835688970022602,,,113,001,2019_Sep_11_1516,MusicAffectPsychophysiology2019,3.0.5,60.09529105821871,
To what extent did the music make you feel ,SAD,30MonoWAV/30MonoT2.wav,2,1,4,14,,,,,0,6,6,13,0,9,9,0,,,,,,,,,2,1.7031909669967717,,,113,001,2019_Sep_11_1516,MusicAffectPsychophysiology2019,3.0.5,60.09529105821871,
To what extent did the music make you feel ,ACTIVE,30MonoWAV/30MonoT2.wav,2,1,4,14,,,,,0,6,6,13,0,10,10,9,,,,,,,,,4,1.2007907779989182,,,113,001,2019_Sep_11_1516,MusicAffectPsychophysiology2019,3.0.5,60.09529105821871,
To what extent did the music make you feel ,ANGRY,30MonoWAV/30MonoT2.wav,2,1,4,14,,,,,0,6,6,13,0,11,11,2,,,,,,,,,1,0.7699132720008492,,,113,001,2019_Sep_11_1516,MusicAffectPsychophysiology2019,3.0.5,60.09529105821871,
,,30MonoWAV/30MonoT2.wav,2,1,4,14,,,,,0,6,6,13,,,,,,,,,,,,,,,,,113,001,2019_Sep_11_1516,MusicAffectPsychophysiology2019,3.0.5,60.09529105821871,
To what extent did the music make you feel ,ASHAMED,30MonoWAV/30MonoT1.wav,2,1,4,13,,,,,0,7,7,12,0,0,0,4,,,2,3.7861633869979414,3,2.2527977689969703,3,1.8197665460029384,1,2.2989943970023887,,,113,001,2019_Sep_11_1516,MusicAffectPsychophysiology2019,3.0.5,60.09529105821871,
To what extent did the music make you feel ,ACTIVE,30MonoWAV/30MonoT1.wav,2,1,4,13,,,,,0,7,7,12,0,1,1,9,,,,,,,,,2,1.1194890629994916,,,113,001,2019_Sep_11_1516,MusicAffectPsychophysiology2019,3.0.5,60.09529105821871,
To what extent did the music make you feel ,ANXIOUS ,30MonoWAV/30MonoT1.wav,2,1,4,13,,,,,0,7,7,12,0,2,2,1,,,,,,,,,1,1.1997761739985435,,,113,001,2019_Sep_11_1516,MusicAffectPsychophysiology2019,3.0.5,60.09529105821871,
To what extent did the music make you feel ,ALERT,30MonoWAV/30MonoT1.wav,2,1,4,13,,,,,0,7,7,12,0,3,3,8,,,,,,,,,2,2.4193324110019603,,,113,001,2019_Sep_11_1516,MusicAffectPsychophysiology2019,3.0.5,60.09529105821871,
To what extent did the music make you feel ,EXCITED,30MonoWAV/30MonoT1.wav,2,1,4,13,,,,,0,7,7,12,0,4,4,7,,,,,,,,,2,2.3024796180034173,,,113,001,2019_Sep_11_1516,MusicAffectPsychophysiology2019,3.0.5,60.09529105821871,
To what extent did the music make you feel ,SCARED,30MonoWAV/30MonoT1.wav,2,1,4,13,,,,,0,7,7,12,0,5,5,11,,,,,,,,,1,0.7864965730041149,,,113,001,2019_Sep_11_1516,MusicAffectPsychophysiology2019,3.0.5,60.09529105821871,
To what extent did the music make you feel ,FRUSTRATED,30MonoWAV/30MonoT1.wav,2,1,4,13,,,,,0,7,7,12,0,6,6,3,,,,,,,,,1,1.5978981450025458,,,113,001,2019_Sep_11_1516,MusicAffectPsychophysiology2019,3.0.5,60.09529105821871,
To what extent did the music make you feel ,HAPPY,30MonoWAV/30MonoT1.wav,2,1,4,13,,,,,0,7,7,12,0,7,7,6,,,,,,,,,2,2.0360871119992225,,,113,001,2019_Sep_11_1516,MusicAffectPsychophysiology2019,3.0.5,60.09529105821871,
To what extent did the music make you feel ,TENDER,30MonoWAV/30MonoT1.wav,2,1,4,13,,,,,0,7,7,12,0,8,8,10,,,,,,,,,1,2.684643510998285,,,113,001,2019_Sep_11_1516,MusicAffectPsychophysiology2019,3.0.5,60.09529105821871,
To what extent did the music make you feel ,GUILTY,30MonoWAV/30MonoT1.wav,2,1,4,13,,,,,0,7,7,12,0,9,9,5,,,,,,,,,1,2.4528252050004085,,,113,001,2019_Sep_11_1516,MusicAffectPsychophysiology2019,3.0.5,60.09529105821871,
To what extent did the music make you feel ,SAD,30MonoWAV/30MonoT1.wav,2,1,4,13,,,,,0,7,7,12,0,10,10,0,,,,,,,,,1,1.4690548719954677,,,113,001,2019_Sep_11_1516,MusicAffectPsychophysiology2019,3.0.5,60.09529105821871,
To what extent did the music make you feel ,ANGRY,30MonoWAV/30MonoT1.wav,2,1,4,13,,,,,0,7,7,12,0,11,11,2,,,,,,,,,1,0.6854734840017045,,,113,001,2019_Sep_11_1516,MusicAffectPsychophysiology2019,3.0.5,60.09529105821871,
,,30MonoWAV/30MonoT1.wav,2,1,4,13,,,,,0,7,7,12,,,,,,,,,,,,,,,,,113,001,2019_Sep_11_1516,MusicAffectPsychophysiology2019,3.0.5,60.09529105821871,
To what extent did the music make you feel ,ANXIOUS ,30MonoWAV/30MonoS4.wav,1,1,3,12,,,,,0,8,8,11,0,0,0,1,,,1,3.836466765998921,2,2.4859229669964407,4,1.7183891559980111,3,2.324331349998829,,,113,001,2019_Sep_11_1516,MusicAffectPsychophysiology2019,3.0.5,60.09529105821871,
To what extent did the music make you feel ,ACTIVE,30MonoWAV/30MonoS4.wav,1,1,3,12,,,,,0,8,8,11,0,1,1,9,,,,,,,,,1,2.4200323580007534,,,113,001,2019_Sep_11_1516,MusicAffectPsychophysiology2019,3.0.5,60.09529105821871,
To what extent did the music make you feel ,HAPPY,30MonoWAV/30MonoS4.wav,1,1,3,12,,,,,0,8,8,11,0,2,2,6,,,,,,,,,1,2.6342704270064132,,,113,001,2019_Sep_11_1516,MusicAffectPsychophysiology2019,3.0.5,60.09529105821871,
To what extent did the music make you feel ,ANGRY,30MonoWAV/30MonoS4.wav,1,1,3,12,,,,,0,8,8,11,0,3,3,2,,,,,,,,,2,1.1353005970013328,,,113,001,2019_Sep_11_1516,MusicAffectPsychophysiology2019,3.0.5,60.09529105821871,
To what extent did the music make you feel ,GUILTY,30MonoWAV/30MonoS4.wav,1,1,3,12,,,,,0,8,8,11,0,4,4,5,,,,,,,,,2,1.787204649001069,,,113,001,2019_Sep_11_1516,MusicAffectPsychophysiology2019,3.0.5,60.09529105821871,
To what extent did the music make you feel ,EXCITED,30MonoWAV/30MonoS4.wav,1,1,3,12,,,,,0,8,8,11,0,5,5,7,,,,,,,,,1,0.920826194997062,,,113,001,2019_Sep_11_1516,MusicAffectPsychophysiology2019,3.0.5,60.09529105821871,
To what extent did the music make you feel ,ALERT,30MonoWAV/30MonoS4.wav,1,1,3,12,,,,,0,8,8,11,0,6,6,8,,,,,,,,,3,1.2530244310037233,,,113,001,2019_Sep_11_1516,MusicAffectPsychophysiology2019,3.0.5,60.09529105821871,
To what extent did the music make you feel ,FRUSTRATED,30MonoWAV/30MonoS4.wav,1,1,3,12,,,,,0,8,8,11,0,7,7,3,,,,,,,,,2,1.8554315170040354,,,113,001,2019_Sep_11_1516,MusicAffectPsychophysiology2019,3.0.5,60.09529105821871,
To what extent did the music make you feel ,ASHAMED,30MonoWAV/30MonoS4.wav,1,1,3,12,,,,,0,8,8,11,0,8,8,4,,,,,,,,,2,1.236461191001581,,,113,001,2019_Sep_11_1516,MusicAffectPsychophysiology2019,3.0.5,60.09529105821871,
To what extent did the music make you feel ,SAD,30MonoWAV/30MonoS4.wav,1,1,3,12,,,,,0,8,8,11,0,9,9,0,,,,,,,,,4,1.3862031979952008,,,113,001,2019_Sep_11_1516,MusicAffectPsychophysiology2019,3.0.5,60.09529105821871,
To what extent did the music make you feel ,SCARED,30MonoWAV/30MonoS4.wav,1,1,3,12,,,,,0,8,8,11,0,10,10,11,,,,,,,,,1,1.616240432995255,,,113,001,2019_Sep_11_1516,MusicAffectPsychophysiology2019,3.0.5,60.09529105821871,
To what extent did the music make you feel ,TENDER,30MonoWAV/30MonoS4.wav,1,1,3,12,,,,,0,8,8,11,0,11,11,10,,,,,,,,,2,1.1025500030009425,,,113,001,2019_Sep_11_1516,MusicAffectPsychophysiology2019,3.0.5,60.09529105821871,
,,30MonoWAV/30MonoS4.wav,1,1,3,12,,,,,0,8,8,11,,,,,,,,,,,,,,,,,113,001,2019_Sep_11_1516,MusicAffectPsychophysiology2019,3.0.5,60.09529105821871,
To what extent did the music make you feel ,ALERT,30MonoWAV/30MonoS1.wav,1,1,3,9,,,,,0,9,9,8,0,0,0,8,,,3,4.836362747002568,2,4.418915525995544,4,1.9022520189973875,4,1.8011362089964678,,,113,001,2019_Sep_11_1516,MusicAffectPsychophysiology2019,3.0.5,60.09529105821871,
To what extent did the music make you feel ,EXCITED,30MonoWAV/30MonoS1.wav,1,1,3,9,,,,,0,9,9,8,0,1,1,7,,,,,,,,,2,2.202169074997073,,,113,001,2019_Sep_11_1516,MusicAffectPsychophysiology2019,3.0.5,60.09529105821871,
To what extent did the music make you feel ,HAPPY,30MonoWAV/30MonoS1.wav,1,1,3,9,,,,,0,9,9,8,0,2,2,6,,,,,,,,,1,1.6518589289989905,,,113,001,2019_Sep_11_1516,MusicAffectPsychophysiology2019,3.0.5,60.09529105821871,
To what extent did the music make you feel ,SCARED,30MonoWAV/30MonoS1.wav,1,1,3,9,,,,,0,9,9,8,0,3,3,11,,,,,,,,,2,1.3178540910012089,,,113,001,2019_Sep_11_1516,MusicAffectPsychophysiology2019,3.0.5,60.09529105821871,
To what extent did the music make you feel ,GUILTY,30MonoWAV/30MonoS1.wav,1,1,3,9,,,,,0,9,9,8,0,4,4,5,,,,,,,,,3,1.3693070599983912,,,113,001,2019_Sep_11_1516,MusicAffectPsychophysiology2019,3.0.5,60.09529105821871,
To what extent did the music make you feel ,ANGRY,30MonoWAV/30MonoS1.wav,1,1,3,9,,,,,0,9,9,8,0,5,5,2,,,,,,,,,3,1.902599952001765,,,113,001,2019_Sep_11_1516,MusicAffectPsychophysiology2019,3.0.5,60.09529105821871,
To what extent did the music make you feel ,ANXIOUS ,30MonoWAV/30MonoS1.wav,1,1,3,9,,,,,0,9,9,8,0,6,6,1,,,,,,,,,2,2.6182291809964227,,,113,001,2019_Sep_11_1516,MusicAffectPsychophysiology2019,3.0.5,60.09529105821871,
To what extent did the music make you feel ,FRUSTRATED,30MonoWAV/30MonoS1.wav,1,1,3,9,,,,,0,9,9,8,0,7,7,3,,,,,,,,,2,1.4154469369968865,,,113,001,2019_Sep_11_1516,MusicAffectPsychophysiology2019,3.0.5,60.09529105821871,
To what extent did the music make you feel ,SAD,30MonoWAV/30MonoS1.wav,1,1,3,9,,,,,0,9,9,8,0,8,8,0,,,,,,,,,4,2.1358610649986076,,,113,001,2019_Sep_11_1516,MusicAffectPsychophysiology2019,3.0.5,60.09529105821871,
To what extent did the music make you feel ,TENDER,30MonoWAV/30MonoS1.wav,1,1,3,9,,,,,0,9,9,8,0,9,9,10,,,,,,,,,2,0.9864245589997154,,,113,001,2019_Sep_11_1516,MusicAffectPsychophysiology2019,3.0.5,60.09529105821871,
To what extent did the music make you feel ,ACTIVE,30MonoWAV/30MonoS1.wav,1,1,3,9,,,,,0,9,9,8,0,10,10,9,,,,,,,,,2,1.6835226270050043,,,113,001,2019_Sep_11_1516,MusicAffectPsychophysiology2019,3.0.5,60.09529105821871,
To what extent did the music make you feel ,ASHAMED,30MonoWAV/30MonoS1.wav,1,1,3,9,,,,,0,9,9,8,0,11,11,4,,,,,,,,,2,1.218815184001869,,,113,001,2019_Sep_11_1516,MusicAffectPsychophysiology2019,3.0.5,60.09529105821871,
,,30MonoWAV/30MonoS1.wav,1,1,3,9,,,,,0,9,9,8,,,,,,,,,,,,,,,,,113,001,2019_Sep_11_1516,MusicAffectPsychophysiology2019,3.0.5,60.09529105821871,
To what extent did the music make you feel ,TENDER,30MonoWAV/30MonoF4.wav,1,2,2,4,,,,,0,10,10,3,0,0,0,10,,,5,3.0660819059994537,1,3.8685520280050696,2,1.9685751750002964,2,2.0252432680063066,,,113,001,2019_Sep_11_1516,MusicAffectPsychophysiology2019,3.0.5,60.09529105821871,
To what extent did the music make you feel ,FRUSTRATED,30MonoWAV/30MonoF4.wav,1,2,2,4,,,,,0,10,10,3,0,1,1,3,,,,,,,,,1,2.175463450003008,,,113,001,2019_Sep_11_1516,MusicAffectPsychophysiology2019,3.0.5,60.09529105821871,
To what extent did the music make you feel ,ASHAMED,30MonoWAV/30MonoF4.wav,1,2,2,4,,,,,0,10,10,3,0,2,2,4,,,,,,,,,1,2.236152135003067,,,113,001,2019_Sep_11_1516,MusicAffectPsychophysiology2019,3.0.5,60.09529105821871,
To what extent did the music make you feel ,ALERT,30MonoWAV/30MonoF4.wav,1,2,2,4,,,,,0,10,10,3,0,3,3,8,,,,,,,,,5,2.616958288002934,,,113,001,2019_Sep_11_1516,MusicAffectPsychophysiology2019,3.0.5,60.09529105821871,
To what extent did the music make you feel ,SCARED,30MonoWAV/30MonoF4.wav,1,2,2,4,,,,,0,10,10,3,0,4,4,11,,,,,,,,,3,3.1828694220021134,,,113,001,2019_Sep_11_1516,MusicAffectPsychophysiology2019,3.0.5,60.09529105821871,
To what extent did the music make you feel ,ANGRY,30MonoWAV/30MonoF4.wav,1,2,2,4,,,,,0,10,10,3,0,5,5,2,,,,,,,,,2,1.1525865180010442,,,113,001,2019_Sep_11_1516,MusicAffectPsychophysiology2019,3.0.5,60.09529105821871,
To what extent did the music make you feel ,GUILTY,30MonoWAV/30MonoF4.wav,1,2,2,4,,,,,0,10,10,3,0,6,6,5,,,,,,,,,2,1.068563411005016,,,113,001,2019_Sep_11_1516,MusicAffectPsychophysiology2019,3.0.5,60.09529105821871,
To what extent did the music make you feel ,HAPPY,30MonoWAV/30MonoF4.wav,1,2,2,4,,,,,0,10,10,3,0,7,7,6,,,,,,,,,1,1.56898003200331,,,113,001,2019_Sep_11_1516,MusicAffectPsychophysiology2019,3.0.5,60.09529105821871,
To what extent did the music make you feel ,ANXIOUS ,30MonoWAV/30MonoF4.wav,1,2,2,4,,,,,0,10,10,3,0,8,8,1,,,,,,,,,4,1.4177603489952162,,,113,001,2019_Sep_11_1516,MusicAffectPsychophysiology2019,3.0.5,60.09529105821871,
To what extent did the music make you feel ,EXCITED,30MonoWAV/30MonoF4.wav,1,2,2,4,,,,,0,10,10,3,0,9,9,7,,,,,,,,,2,1.6694040529982885,,,113,001,2019_Sep_11_1516,MusicAffectPsychophysiology2019,3.0.5,60.09529105821871,
To what extent did the music make you feel ,SAD,30MonoWAV/30MonoF4.wav,1,2,2,4,,,,,0,10,10,3,0,10,10,0,,,,,,,,,1,2.5013465469965013,,,113,001,2019_Sep_11_1516,MusicAffectPsychophysiology2019,3.0.5,60.09529105821871,
To what extent did the music make you feel ,ACTIVE,30MonoWAV/30MonoF4.wav,1,2,2,4,,,,,0,10,10,3,0,11,11,9,,,,,,,,,4,1.40193297299993,,,113,001,2019_Sep_11_1516,MusicAffectPsychophysiology2019,3.0.5,60.09529105821871,
,,30MonoWAV/30MonoF4.wav,1,2,2,4,,,,,0,10,10,3,,,,,,,,,,,,,,,,,113,001,2019_Sep_11_1516,MusicAffectPsychophysiology2019,3.0.5,60.09529105821871,
To what extent did the music make you feel ,ASHAMED,30MonoWAV/30MonoT4.wav,2,1,4,16,,,,,0,11,11,15,0,0,0,4,,,3,4.535473028001434,3,1.8198019410046982,3,2.652563301002374,1,1.968821262998972,,,113,001,2019_Sep_11_1516,MusicAffectPsychophysiology2019,3.0.5,60.09529105821871,
To what extent did the music make you feel ,SCARED,30MonoWAV/30MonoT4.wav,2,1,4,16,,,,,0,11,11,15,0,1,1,11,,,,,,,,,1,1.0692497049967642,,,113,001,2019_Sep_11_1516,MusicAffectPsychophysiology2019,3.0.5,60.09529105821871,
To what extent did the music make you feel ,HAPPY,30MonoWAV/30MonoT4.wav,2,1,4,16,,,,,0,11,11,15,0,2,2,6,,,,,,,,,3,1.1863165260001551,,,113,001,2019_Sep_11_1516,MusicAffectPsychophysiology2019,3.0.5,60.09529105821871,
To what extent did the music make you feel ,SAD,30MonoWAV/30MonoT4.wav,2,1,4,16,,,,,0,11,11,15,0,3,3,0,,,,,,,,,2,1.6519255699968198,,,113,001,2019_Sep_11_1516,MusicAffectPsychophysiology2019,3.0.5,60.09529105821871,
To what extent did the music make you feel ,ANXIOUS ,30MonoWAV/30MonoT4.wav,2,1,4,16,,,,,0,11,11,15,0,4,4,1,,,,,,,,,2,1.4367406370001845,,,113,001,2019_Sep_11_1516,MusicAffectPsychophysiology2019,3.0.5,60.09529105821871,
To what extent did the music make you feel ,GUILTY,30MonoWAV/30MonoT4.wav,2,1,4,16,,,,,0,11,11,15,0,5,5,5,,,,,,,,,1,1.2503378649998922,,,113,001,2019_Sep_11_1516,MusicAffectPsychophysiology2019,3.0.5,60.09529105821871,
To what extent did the music make you feel ,EXCITED,30MonoWAV/30MonoT4.wav,2,1,4,16,,,,,0,11,11,15,0,6,6,7,,,,,,,,,3,1.0517337050041533,,,113,001,2019_Sep_11_1516,MusicAffectPsychophysiology2019,3.0.5,60.09529105821871,
To what extent did the music make you feel ,ACTIVE,30MonoWAV/30MonoT4.wav,2,1,4,16,,,,,0,11,11,15,0,7,7,9,,,,,,,,,2,1.2699278649961343,,,113,001,2019_Sep_11_1516,MusicAffectPsychophysiology2019,3.0.5,60.09529105821871,
To what extent did the music make you feel ,TENDER,30MonoWAV/30MonoT4.wav,2,1,4,16,,,,,0,11,11,15,0,8,8,10,,,,,,,,,2,0.9036137649964076,,,113,001,2019_Sep_11_1516,MusicAffectPsychophysiology2019,3.0.5,60.09529105821871,
To what extent did the music make you feel ,ANGRY,30MonoWAV/30MonoT4.wav,2,1,4,16,,,,,0,11,11,15,0,9,9,2,,,,,,,,,1,1.1359938109962968,,,113,001,2019_Sep_11_1516,MusicAffectPsychophysiology2019,3.0.5,60.09529105821871,
To what extent did the music make you feel ,FRUSTRATED,30MonoWAV/30MonoT4.wav,2,1,4,16,,,,,0,11,11,15,0,10,10,3,,,,,,,,,1,1.2526408089979668,,,113,001,2019_Sep_11_1516,MusicAffectPsychophysiology2019,3.0.5,60.09529105821871,
To what extent did the music make you feel ,ALERT,30MonoWAV/30MonoT4.wav,2,1,4,16,,,,,0,11,11,15,0,11,11,8,,,,,,,,,3,1.1187482530003763,,,113,001,2019_Sep_11_1516,MusicAffectPsychophysiology2019,3.0.5,60.09529105821871,
,,30MonoWAV/30MonoT4.wav,2,1,4,16,,,,,0,11,11,15,,,,,,,,,,,,,,,,,113,001,2019_Sep_11_1516,MusicAffectPsychophysiology2019,3.0.5,60.09529105821871,
To what extent did the music make you feel ,ALERT,30MonoWAV/30MonoH2.wav,2,2,1,6,,,,,0,12,12,5,0,0,0,8,,,3,4.402219469004194,3,1.3524030960033997,3,1.852994483000657,4,1.4861503709980752,,,113,001,2019_Sep_11_1516,MusicAffectPsychophysiology2019,3.0.5,60.09529105821871,
To what extent did the music make you feel ,EXCITED,30MonoWAV/30MonoH2.wav,2,2,1,6,,,,,0,12,12,5,0,1,1,7,,,,,,,,,3,1.2864677120014676,,,113,001,2019_Sep_11_1516,MusicAffectPsychophysiology2019,3.0.5,60.09529105821871,
To what extent did the music make you feel ,SCARED,30MonoWAV/30MonoH2.wav,2,2,1,6,,,,,0,12,12,5,0,2,2,11,,,,,,,,,1,1.1923423869957332,,,113,001,2019_Sep_11_1516,MusicAffectPsychophysiology2019,3.0.5,60.09529105821871,
To what extent did the music make you feel ,ASHAMED,30MonoWAV/30MonoH2.wav,2,2,1,6,,,,,0,12,12,5,0,3,3,4,,,,,,,,,1,1.0163831069949083,,,113,001,2019_Sep_11_1516,MusicAffectPsychophysiology2019,3.0.5,60.09529105821871,
To what extent did the music make you feel ,HAPPY,30MonoWAV/30MonoH2.wav,2,2,1,6,,,,,0,12,12,5,0,4,4,6,,,,,,,,,2,2.2185333500019624,,,113,001,2019_Sep_11_1516,MusicAffectPsychophysiology2019,3.0.5,60.09529105821871,
To what extent did the music make you feel ,TENDER,30MonoWAV/30MonoH2.wav,2,2,1,6,,,,,0,12,12,5,0,5,5,10,,,,,,,,,2,1.0187910539971199,,,113,001,2019_Sep_11_1516,MusicAffectPsychophysiology2019,3.0.5,60.09529105821871,
To what extent did the music make you feel ,ACTIVE,30MonoWAV/30MonoH2.wav,2,2,1,6,,,,,0,12,12,5,0,6,6,9,,,,,,,,,3,1.1371324869978707,,,113,001,2019_Sep_11_1516,MusicAffectPsychophysiology2019,3.0.5,60.09529105821871,
To what extent did the music make you feel ,ANGRY,30MonoWAV/30MonoH2.wav,2,2,1,6,,,,,0,12,12,5,0,7,7,2,,,,,,,,,1,1.351521518001391,,,113,001,2019_Sep_11_1516,MusicAffectPsychophysiology2019,3.0.5,60.09529105821871,
To what extent did the music make you feel ,SAD,30MonoWAV/30MonoH2.wav,2,2,1,6,,,,,0,12,12,5,0,8,8,0,,,,,,,,,1,1.5016116039987537,,,113,001,2019_Sep_11_1516,MusicAffectPsychophysiology2019,3.0.5,60.09529105821871,
To what extent did the music make you feel ,GUILTY,30MonoWAV/30MonoH2.wav,2,2,1,6,,,,,0,12,12,5,0,9,9,5,,,,,,,,,1,0.76843244999327,,,113,001,2019_Sep_11_1516,MusicAffectPsychophysiology2019,3.0.5,60.09529105821871,
To what extent did the music make you feel ,FRUSTRATED,30MonoWAV/30MonoH2.wav,2,2,1,6,,,,,0,12,12,5,0,10,10,3,,,,,,,,,1,0.7428216660046019,,,113,001,2019_Sep_11_1516,MusicAffectPsychophysiology2019,3.0.5,60.09529105821871,
To what extent did the music make you feel ,ANXIOUS ,30MonoWAV/30MonoH2.wav,2,2,1,6,,,,,0,12,12,5,0,11,11,1,,,,,,,,,2,1.1185956269982853,,,113,001,2019_Sep_11_1516,MusicAffectPsychophysiology2019,3.0.5,60.09529105821871,
,,30MonoWAV/30MonoH2.wav,2,2,1,6,,,,,0,12,12,5,,,,,,,,,,,,,,,,,113,001,2019_Sep_11_1516,MusicAffectPsychophysiology2019,3.0.5,60.09529105821871,
To what extent did the music make you feel ,ANXIOUS ,30MonoWAV/30MonoF3.wav,1,2,2,3,,,,,0,13,13,2,0,0,0,1,,,4,3.0519940550002502,1,3.1184781470001326,2,1.6845324729947606,5,4.067361913999775,,,113,001,2019_Sep_11_1516,MusicAffectPsychophysiology2019,3.0.5,60.09529105821871,
To what extent did the music make you feel ,GUILTY,30MonoWAV/30MonoF3.wav,1,2,2,3,,,,,0,13,13,2,0,1,1,5,,,,,,,,,2,2.436179430995253,,,113,001,2019_Sep_11_1516,MusicAffectPsychophysiology2019,3.0.5,60.09529105821871,
To what extent did the music make you feel ,ANGRY,30MonoWAV/30MonoF3.wav,1,2,2,3,,,,,0,13,13,2,0,2,2,2,,,,,,,,,2,3.6019046540022828,,,113,001,2019_Sep_11_1516,MusicAffectPsychophysiology2019,3.0.5,60.09529105821871,
To what extent did the music make you feel ,EXCITED,30MonoWAV/30MonoF3.wav,1,2,2,3,,,,,0,13,13,2,0,3,3,7,,,,,,,,,3,1.7857700410022517,,,113,001,2019_Sep_11_1516,MusicAffectPsychophysiology2019,3.0.5,60.09529105821871,
To what extent did the music make you feel ,ACTIVE,30MonoWAV/30MonoF3.wav,1,2,2,3,,,,,0,13,13,2,0,4,4,9,,,,,,,,,3,1.1191979830036871,,,113,001,2019_Sep_11_1516,MusicAffectPsychophysiology2019,3.0.5,60.09529105821871,
To what extent did the music make you feel ,SCARED,30MonoWAV/30MonoF3.wav,1,2,2,3,,,,,0,13,13,2,0,5,5,11,,,,,,,,,3,2.851223495999875,,,113,001,2019_Sep_11_1516,MusicAffectPsychophysiology2019,3.0.5,60.09529105821871,
To what extent did the music make you feel ,SAD,30MonoWAV/30MonoF3.wav,1,2,2,3,,,,,0,13,13,2,0,6,6,0,,,,,,,,,1,2.1849253219988896,,,113,001,2019_Sep_11_1516,MusicAffectPsychophysiology2019,3.0.5,60.09529105821871,
To what extent did the music make you feel ,ALERT,30MonoWAV/30MonoF3.wav,1,2,2,3,,,,,0,13,13,2,0,7,7,8,,,,,,,,,4,1.3862182299999404,,,113,001,2019_Sep_11_1516,MusicAffectPsychophysiology2019,3.0.5,60.09529105821871,
To what extent did the music make you feel ,TENDER,30MonoWAV/30MonoF3.wav,1,2,2,3,,,,,0,13,13,2,0,8,8,10,,,,,,,,,1,3.0857119639986195,,,113,001,2019_Sep_11_1516,MusicAffectPsychophysiology2019,3.0.5,60.09529105821871,
To what extent did the music make you feel ,HAPPY,30MonoWAV/30MonoF3.wav,1,2,2,3,,,,,0,13,13,2,0,9,9,6,,,,,,,,,1,1.6325864769969485,,,113,001,2019_Sep_11_1516,MusicAffectPsychophysiology2019,3.0.5,60.09529105821871,
To what extent did the music make you feel ,FRUSTRATED,30MonoWAV/30MonoF3.wav,1,2,2,3,,,,,0,13,13,2,0,10,10,3,,,,,,,,,2,1.4358781020055176,,,113,001,2019_Sep_11_1516,MusicAffectPsychophysiology2019,3.0.5,60.09529105821871,
To what extent did the music make you feel ,ASHAMED,30MonoWAV/30MonoF3.wav,1,2,2,3,,,,,0,13,13,2,0,11,11,4,,,,,,,,,1,1.5200236930031679,,,113,001,2019_Sep_11_1516,MusicAffectPsychophysiology2019,3.0.5,60.09529105821871,
,,30MonoWAV/30MonoF3.wav,1,2,2,3,,,,,0,13,13,2,,,,,,,,,,,,,,,,,113,001,2019_Sep_11_1516,MusicAffectPsychophysiology2019,3.0.5,60.09529105821871,
To what extent did the music make you feel ,ACTIVE,30MonoWAV/30MonoT3.wav,2,1,4,15,,,,,0,14,14,14,0,0,0,9,,,3,3.785046359000262,4,1.3189632240028004,4,1.2852779000022565,3,2.2953549259982537,,,113,001,2019_Sep_11_1516,MusicAffectPsychophysiology2019,3.0.5,60.09529105821871,
To what extent did the music make you feel ,ANXIOUS ,30MonoWAV/30MonoT3.wav,2,1,4,15,,,,,0,14,14,14,0,1,1,1,,,,,,,,,1,2.2206356809983845,,,113,001,2019_Sep_11_1516,MusicAffectPsychophysiology2019,3.0.5,60.09529105821871,
To what extent did the music make you feel ,ASHAMED,30MonoWAV/30MonoT3.wav,2,1,4,15,,,,,0,14,14,14,0,2,2,4,,,,,,,,,1,0.7201452180015622,,,113,001,2019_Sep_11_1516,MusicAffectPsychophysiology2019,3.0.5,60.09529105821871,
To what extent did the music make you feel ,SCARED,30MonoWAV/30MonoT3.wav,2,1,4,15,,,,,0,14,14,14,0,3,3,11,,,,,,,,,1,1.0492097550013568,,,113,001,2019_Sep_11_1516,MusicAffectPsychophysiology2019,3.0.5,60.09529105821871,
To what extent did the music make you feel ,FRUSTRATED,30MonoWAV/30MonoT3.wav,2,1,4,15,,,,,0,14,14,14,0,4,4,3,,,,,,,,,1,0.8862346679961774,,,113,001,2019_Sep_11_1516,MusicAffectPsychophysiology2019,3.0.5,60.09529105821871,
To what extent did the music make you feel ,ANGRY,30MonoWAV/30MonoT3.wav,2,1,4,15,,,,,0,14,14,14,0,5,5,2,,,,,,,,,1,1.135049317002995,,,113,001,2019_Sep_11_1516,MusicAffectPsychophysiology2019,3.0.5,60.09529105821871,
To what extent did the music make you feel ,GUILTY,30MonoWAV/30MonoT3.wav,2,1,4,15,,,,,0,14,14,14,0,6,6,5,,,,,,,,,1,0.6020931169987307,,,113,001,2019_Sep_11_1516,MusicAffectPsychophysiology2019,3.0.5,60.09529105821871,
To what extent did the music make you feel ,TENDER,30MonoWAV/30MonoT3.wav,2,1,4,15,,,,,0,14,14,14,0,7,7,10,,,,,,,,,1,0.9531284250042518,,,113,001,2019_Sep_11_1516,MusicAffectPsychophysiology2019,3.0.5,60.09529105821871,
To what extent did the music make you feel ,EXCITED,30MonoWAV/30MonoT3.wav,2,1,4,15,,,,,0,14,14,14,0,8,8,7,,,,,,,,,2,2.100881122998544,,,113,001,2019_Sep_11_1516,MusicAffectPsychophysiology2019,3.0.5,60.09529105821871,
To what extent did the music make you feel ,HAPPY,30MonoWAV/30MonoT3.wav,2,1,4,15,,,,,0,14,14,14,0,9,9,6,,,,,,,,,3,1.7360660370031837,,,113,001,2019_Sep_11_1516,MusicAffectPsychophysiology2019,3.0.5,60.09529105821871,
To what extent did the music make you feel ,SAD,30MonoWAV/30MonoT3.wav,2,1,4,15,,,,,0,14,14,14,0,10,10,0,,,,,,,,,1,1.3701468680010294,,,113,001,2019_Sep_11_1516,MusicAffectPsychophysiology2019,3.0.5,60.09529105821871,
To what extent did the music make you feel ,ALERT,30MonoWAV/30MonoT3.wav,2,1,4,15,,,,,0,14,14,14,0,11,11,8,,,,,,,,,3,1.318315561999043,,,113,001,2019_Sep_11_1516,MusicAffectPsychophysiology2019,3.0.5,60.09529105821871,
,,30MonoWAV/30MonoT3.wav,2,1,4,15,,,,,0,14,14,14,,,,,,,,,,,,,,,,,113,001,2019_Sep_11_1516,MusicAffectPsychophysiology2019,3.0.5,60.09529105821871,
To what extent did the music make you feel ,ASHAMED,30MonoWAV/30MonoH1.wav,2,2,1,5,,,,,0,15,15,4,0,0,0,4,,,4,3.986121504996845,4,1.2671049569980823,4,2.1186398759964504,1,2.6056685770017793,,,113,001,2019_Sep_11_1516,MusicAffectPsychophysiology2019,3.0.5,60.09529105821871,
To what extent did the music make you feel ,TENDER,30MonoWAV/30MonoH1.wav,2,2,1,5,,,,,0,15,15,4,0,1,1,10,,,,,,,,,2,1.1199683450031443,,,113,001,2019_Sep_11_1516,MusicAffectPsychophysiology2019,3.0.5,60.09529105821871,
To what extent did the music make you feel ,HAPPY,30MonoWAV/30MonoH1.wav,2,2,1,5,,,,,0,15,15,4,0,2,2,6,,,,,,,,,3,1.1342833830058225,,,113,001,2019_Sep_11_1516,MusicAffectPsychophysiology2019,3.0.5,60.09529105821871,
To what extent did the music make you feel ,ACTIVE,30MonoWAV/30MonoH1.wav,2,2,1,5,,,,,0,15,15,4,0,3,3,9,,,,,,,,,3,1.150967004999984,,,113,001,2019_Sep_11_1516,MusicAffectPsychophysiology2019,3.0.5,60.09529105821871,
To what extent did the music make you feel ,EXCITED,30MonoWAV/30MonoH1.wav,2,2,1,5,,,,,0,15,15,4,0,4,4,7,,,,,,,,,4,1.2515673330053687,,,113,001,2019_Sep_11_1516,MusicAffectPsychophysiology2019,3.0.5,60.09529105821871,
To what extent did the music make you feel ,ANXIOUS ,30MonoWAV/30MonoH1.wav,2,2,1,5,,,,,0,15,15,4,0,5,5,1,,,,,,,,,1,1.2193199469984393,,,113,001,2019_Sep_11_1516,MusicAffectPsychophysiology2019,3.0.5,60.09529105821871,
To what extent did the music make you feel ,ALERT,30MonoWAV/30MonoH1.wav,2,2,1,5,,,,,0,15,15,4,0,6,6,8,,,,,,,,,3,1.1691428080011974,,,113,001,2019_Sep_11_1516,MusicAffectPsychophysiology2019,3.0.5,60.09529105821871,
To what extent did the music make you feel ,ANGRY,30MonoWAV/30MonoH1.wav,2,2,1,5,,,,,0,15,15,4,0,7,7,2,,,,,,,,,1,1.0364677119941916,,,113,001,2019_Sep_11_1516,MusicAffectPsychophysiology2019,3.0.5,60.09529105821871,
To what extent did the music make you feel ,FRUSTRATED,30MonoWAV/30MonoH1.wav,2,2,1,5,,,,,0,15,15,4,0,8,8,3,,,,,,,,,1,1.100301673002832,,,113,001,2019_Sep_11_1516,MusicAffectPsychophysiology2019,3.0.5,60.09529105821871,
To what extent did the music make you feel ,SCARED,30MonoWAV/30MonoH1.wav,2,2,1,5,,,,,0,15,15,4,0,9,9,11,,,,,,,,,1,0.8031026759999804,,,113,001,2019_Sep_11_1516,MusicAffectPsychophysiology2019,3.0.5,60.09529105821871,
To what extent did the music make you feel ,GUILTY,30MonoWAV/30MonoH1.wav,2,2,1,5,,,,,0,15,15,4,0,10,10,5,,,,,,,,,1,0.5536547370065819,,,113,001,2019_Sep_11_1516,MusicAffectPsychophysiology2019,3.0.5,60.09529105821871,
To what extent did the music make you feel ,SAD,30MonoWAV/30MonoH1.wav,2,2,1,5,,,,,0,15,15,4,0,11,11,0,,,,,,,,,1,0.6855449950016919,,,113,001,2019_Sep_11_1516,MusicAffectPsychophysiology2019,3.0.5,60.09529105821871,
,,30MonoWAV/30MonoH1.wav,2,2,1,5,,,,,0,15,15,4,,,,,,,,,,,,,,,,,113,001,2019_Sep_11_1516,MusicAffectPsychophysiology2019,3.0.5,60.09529105821871,
To what extent did the music make you feel ,ANGRY,30MonoWAV/30MonoT2.wav,2,1,4,14,,,,,1,0,16,13,0,0,0,2,,,3,5.318889134003257,4,1.9524276570009533,3,1.235908376002044,1,1.498697262002679,,,113,001,2019_Sep_11_1516,MusicAffectPsychophysiology2019,3.0.5,60.09529105821871,
To what extent did the music make you feel ,ALERT,30MonoWAV/30MonoT2.wav,2,1,4,14,,,,,1,0,16,13,0,1,1,8,,,,,,,,,2,1.635963916000037,,,113,001,2019_Sep_11_1516,MusicAffectPsychophysiology2019,3.0.5,60.09529105821871,
To what extent did the music make you feel ,ASHAMED,30MonoWAV/30MonoT2.wav,2,1,4,14,,,,,1,0,16,13,0,2,2,4,,,,,,,,,1,0.8537285200000042,,,113,001,2019_Sep_11_1516,MusicAffectPsychophysiology2019,3.0.5,60.09529105821871,
To what extent did the music make you feel ,ACTIVE,30MonoWAV/30MonoT2.wav,2,1,4,14,,,,,1,0,16,13,0,3,3,9,,,,,,,,,2,1.1858129310057848,,,113,001,2019_Sep_11_1516,MusicAffectPsychophysiology2019,3.0.5,60.09529105821871,
To what extent did the music make you feel ,GUILTY,30MonoWAV/30MonoT2.wav,2,1,4,14,,,,,1,0,16,13,0,4,4,5,,,,,,,,,1,0.6528392079999321,,,113,001,2019_Sep_11_1516,MusicAffectPsychophysiology2019,3.0.5,60.09529105821871,
To what extent did the music make you feel ,SAD,30MonoWAV/30MonoT2.wav,2,1,4,14,,,,,1,0,16,13,0,5,5,0,,,,,,,,,1,1.402369124996767,,,113,001,2019_Sep_11_1516,MusicAffectPsychophysiology2019,3.0.5,60.09529105821871,
To what extent did the music make you feel ,ANXIOUS ,30MonoWAV/30MonoT2.wav,2,1,4,14,,,,,1,0,16,13,0,6,6,1,,,,,,,,,1,0.5341598909944878,,,113,001,2019_Sep_11_1516,MusicAffectPsychophysiology2019,3.0.5,60.09529105821871,
To what extent did the music make you feel ,TENDER,30MonoWAV/30MonoT2.wav,2,1,4,14,,,,,1,0,16,13,0,7,7,10,,,,,,,,,1,0.7866605750023155,,,113,001,2019_Sep_11_1516,MusicAffectPsychophysiology2019,3.0.5,60.09529105821871,
To what extent did the music make you feel ,FRUSTRATED,30MonoWAV/30MonoT2.wav,2,1,4,14,,,,,1,0,16,13,0,8,8,3,,,,,,,,,1,0.8143149520037696,,,113,001,2019_Sep_11_1516,MusicAffectPsychophysiology2019,3.0.5,60.09529105821871,
To what extent did the music make you feel ,EXCITED,30MonoWAV/30MonoT2.wav,2,1,4,14,,,,,1,0,16,13,0,9,9,7,,,,,,,,,2,1.1692940130014904,,,113,001,2019_Sep_11_1516,MusicAffectPsychophysiology2019,3.0.5,60.09529105821871,
To what extent did the music make you feel ,SCARED,30MonoWAV/30MonoT2.wav,2,1,4,14,,,,,1,0,16,13,0,10,10,11,,,,,,,,,1,13.867297905999294,,,113,001,2019_Sep_11_1516,MusicAffectPsychophysiology2019,3.0.5,60.09529105821871,
To what extent did the music make you feel ,HAPPY,30MonoWAV/30MonoT2.wav,2,1,4,14,,,,,1,0,16,13,0,11,11,6,,,,,,,,,2,1.5495399810024537,,,113,001,2019_Sep_11_1516,MusicAffectPsychophysiology2019,3.0.5,60.09529105821871,
,,30MonoWAV/30MonoT2.wav,2,1,4,14,,,,,1,0,16,13,,,,,,,,,,,,,,,,,113,001,2019_Sep_11_1516,MusicAffectPsychophysiology2019,3.0.5,60.09529105821871,
To what extent did the music make you feel ,GUILTY,30MonoWAV/30MonoT1.wav,2,1,4,13,,,,,1,1,17,12,0,0,0,5,,,2,7.502788013996906,3,1.1354952699985006,3,1.5361979809968034,1,1.1905431940031121,,,113,001,2019_Sep_11_1516,MusicAffectPsychophysiology2019,3.0.5,60.09529105821871,
To what extent did the music make you feel ,TENDER,30MonoWAV/30MonoT1.wav,2,1,4,13,,,,,1,1,17,12,0,1,1,10,,,,,,,,,1,0.8543999250032357,,,113,001,2019_Sep_11_1516,MusicAffectPsychophysiology2019,3.0.5,60.09529105821871,
To what extent did the music make you feel ,SCARED,30MonoWAV/30MonoT1.wav,2,1,4,13,,,,,1,1,17,12,0,2,2,11,,,,,,,,,1,0.6013767010008451,,,113,001,2019_Sep_11_1516,MusicAffectPsychophysiology2019,3.0.5,60.09529105821871,
To what extent did the music make you feel ,ALERT,30MonoWAV/30MonoT1.wav,2,1,4,13,,,,,1,1,17,12,0,3,3,8,,,,,,,,,3,1.01902367999719,,,113,001,2019_Sep_11_1516,MusicAffectPsychophysiology2019,3.0.5,60.09529105821871,
To what extent did the music make you feel ,HAPPY,30MonoWAV/30MonoT1.wav,2,1,4,13,,,,,1,1,17,12,0,4,4,6,,,,,,,,,2,1.1530082169992966,,,113,001,2019_Sep_11_1516,MusicAffectPsychophysiology2019,3.0.5,60.09529105821871,
To what extent did the music make you feel ,ANXIOUS ,30MonoWAV/30MonoT1.wav,2,1,4,13,,,,,1,1,17,12,0,5,5,1,,,,,,,,,1,0.8696220889978576,,,113,001,2019_Sep_11_1516,MusicAffectPsychophysiology2019,3.0.5,60.09529105821871,
To what extent did the music make you feel ,ACTIVE,30MonoWAV/30MonoT1.wav,2,1,4,13,,,,,1,1,17,12,0,6,6,9,,,,,,,,,3,1.3869234980011242,,,113,001,2019_Sep_11_1516,MusicAffectPsychophysiology2019,3.0.5,60.09529105821871,
To what extent did the music make you feel ,ASHAMED,30MonoWAV/30MonoT1.wav,2,1,4,13,,,,,1,1,17,12,0,7,7,4,,,,,,,,,1,24.64945769699989,,,113,001,2019_Sep_11_1516,MusicAffectPsychophysiology2019,3.0.5,60.09529105821871,
To what extent did the music make you feel ,FRUSTRATED,30MonoWAV/30MonoT1.wav,2,1,4,13,,,,,1,1,17,12,0,8,8,3,,,,,,,,,1,1.3844445720023941,,,113,001,2019_Sep_11_1516,MusicAffectPsychophysiology2019,3.0.5,60.09529105821871,
To what extent did the music make you feel ,EXCITED,30MonoWAV/30MonoT1.wav,2,1,4,13,,,,,1,1,17,12,0,9,9,7,,,,,,,,,2,1.436503258002631,,,113,001,2019_Sep_11_1516,MusicAffectPsychophysiology2019,3.0.5,60.09529105821871,
To what extent did the music make you feel ,SAD,30MonoWAV/30MonoT1.wav,2,1,4,13,,,,,1,1,17,12,0,10,10,0,,,,,,,,,1,2.469151550998504,,,113,001,2019_Sep_11_1516,MusicAffectPsychophysiology2019,3.0.5,60.09529105821871,
To what extent did the music make you feel ,ANGRY,30MonoWAV/30MonoT1.wav,2,1,4,13,,,,,1,1,17,12,0,11,11,2,,,,,,,,,1,0.5358872560027521,,,113,001,2019_Sep_11_1516,MusicAffectPsychophysiology2019,3.0.5,60.09529105821871,
,,30MonoWAV/30MonoT1.wav,2,1,4,13,,,,,1,1,17,12,,,,,,,,,,,,,,,,,113,001,2019_Sep_11_1516,MusicAffectPsychophysiology2019,3.0.5,60.09529105821871,
To what extent did the music make you feel ,GUILTY,30MonoWAV/30MonoT3.wav,2,1,4,15,,,,,1,2,18,14,0,0,0,5,,,2,5.201797740999609,4,1.4690499959979206,3,1.4029713979980443,1,1.481419884999923,,,113,001,2019_Sep_11_1516,MusicAffectPsychophysiology2019,3.0.5,60.09529105821871,
To what extent did the music make you feel ,ACTIVE,30MonoWAV/30MonoT3.wav,2,1,4,15,,,,,1,2,18,14,0,1,1,9,,,,,,,,,2,1.149930637999205,,,113,001,2019_Sep_11_1516,MusicAffectPsychophysiology2019,3.0.5,60.09529105821871,
To what extent did the music make you feel ,FRUSTRATED,30MonoWAV/30MonoT3.wav,2,1,4,15,,,,,1,2,18,14,0,2,2,3,,,,,,,,,1,0.7857442159947823,,,113,001,2019_Sep_11_1516,MusicAffectPsychophysiology2019,3.0.5,60.09529105821871,
To what extent did the music make you feel ,HAPPY,30MonoWAV/30MonoT3.wav,2,1,4,15,,,,,1,2,18,14,0,3,3,6,,,,,,,,,4,1.3191394089953974,,,113,001,2019_Sep_11_1516,MusicAffectPsychophysiology2019,3.0.5,60.09529105821871,
To what extent did the music make you feel ,ALERT,30MonoWAV/30MonoT3.wav,2,1,4,15,,,,,1,2,18,14,0,4,4,8,,,,,,,,,3,1.1861613770015538,,,113,001,2019_Sep_11_1516,MusicAffectPsychophysiology2019,3.0.5,60.09529105821871,
To what extent did the music make you feel ,ANGRY,30MonoWAV/30MonoT3.wav,2,1,4,15,,,,,1,2,18,14,0,5,5,2,,,,,,,,,1,0.9858605449990137,,,113,001,2019_Sep_11_1516,MusicAffectPsychophysiology2019,3.0.5,60.09529105821871,
To what extent did the music make you feel ,SCARED,30MonoWAV/30MonoT3.wav,2,1,4,15,,,,,1,2,18,14,0,6,6,11,,,,,,,,,1,0.8027674000040861,,,113,001,2019_Sep_11_1516,MusicAffectPsychophysiology2019,3.0.5,60.09529105821871,
To what extent did the music make you feel ,TENDER,30MonoWAV/30MonoT3.wav,2,1,4,15,,,,,1,2,18,14,0,7,7,10,,,,,,,,,1,0.6542997220021789,,,113,001,2019_Sep_11_1516,MusicAffectPsychophysiology2019,3.0.5,60.09529105821871,
To what extent did the music make you feel ,SAD,30MonoWAV/30MonoT3.wav,2,1,4,15,,,,,1,2,18,14,0,8,8,0,,,,,,,,,2,1.1861794799988274,,,113,001,2019_Sep_11_1516,MusicAffectPsychophysiology2019,3.0.5,60.09529105821871,
To what extent did the music make you feel ,EXCITED,30MonoWAV/30MonoT3.wav,2,1,4,15,,,,,1,2,18,14,0,9,9,7,,,,,,,,,3,1.1673213550020591,,,113,001,2019_Sep_11_1516,MusicAffectPsychophysiology2019,3.0.5,60.09529105821871,
To what extent did the music make you feel ,ANXIOUS ,30MonoWAV/30MonoT3.wav,2,1,4,15,,,,,1,2,18,14,0,10,10,1,,,,,,,,,2,1.119635744005791,,,113,001,2019_Sep_11_1516,MusicAffectPsychophysiology2019,3.0.5,60.09529105821871,
To what extent did the music make you feel ,ASHAMED,30MonoWAV/30MonoT3.wav,2,1,4,15,,,,,1,2,18,14,0,11,11,4,,,,,,,,,3,1.00274100000388,,,113,001,2019_Sep_11_1516,MusicAffectPsychophysiology2019,3.0.5,60.09529105821871,
,,30MonoWAV/30MonoT3.wav,2,1,4,15,,,,,1,2,18,14,,,,,,,,,,,,,,,,,113,001,2019_Sep_11_1516,MusicAffectPsychophysiology2019,3.0.5,60.09529105821871,
To what extent did the music make you feel ,ANXIOUS ,30MonoWAV/30MonoS1.wav,1,1,3,9,,,,,1,3,19,8,0,0,0,1,,,4,2.902640826003335,2,1.7184612919954816,3,1.3186340629981714,3,1.7237246419972507,,,113,001,2019_Sep_11_1516,MusicAffectPsychophysiology2019,3.0.5,60.09529105821871,
To what extent did the music make you feel ,HAPPY,30MonoWAV/30MonoS1.wav,1,1,3,9,,,,,1,3,19,8,0,1,1,6,,,,,,,,,1,1.4693051080030273,,,113,001,2019_Sep_11_1516,MusicAffectPsychophysiology2019,3.0.5,60.09529105821871,
To what extent did the music make you feel ,EXCITED,30MonoWAV/30MonoS1.wav,1,1,3,9,,,,,1,3,19,8,0,2,2,7,,,,,,,,,2,1.1502751020016149,,,113,001,2019_Sep_11_1516,MusicAffectPsychophysiology2019,3.0.5,60.09529105821871,
To what extent did the music make you feel ,TENDER,30MonoWAV/30MonoS1.wav,1,1,3,9,,,,,1,3,19,8,0,3,3,10,,,,,,,,,2,0.7701526719974936,,,113,001,2019_Sep_11_1516,MusicAffectPsychophysiology2019,3.0.5,60.09529105821871,
To what extent did the music make you feel ,ASHAMED,30MonoWAV/30MonoS1.wav,1,1,3,9,,,,,1,3,19,8,0,4,4,4,,,,,,,,,3,2.2359386940006516,,,113,001,2019_Sep_11_1516,MusicAffectPsychophysiology2019,3.0.5,60.09529105821871,
To what extent did the music make you feel ,ACTIVE,30MonoWAV/30MonoS1.wav,1,1,3,9,,,,,1,3,19,8,0,5,5,9,,,,,,,,,3,3.1018968489952385,,,113,001,2019_Sep_11_1516,MusicAffectPsychophysiology2019,3.0.5,60.09529105821871,
To what extent did the music make you feel ,SAD,30MonoWAV/30MonoS1.wav,1,1,3,9,,,,,1,3,19,8,0,6,6,0,,,,,,,,,1,16.184026755996456,,,113,001,2019_Sep_11_1516,MusicAffectPsychophysiology2019,3.0.5,60.09529105821871,
To what extent did the music make you feel ,ANGRY,30MonoWAV/30MonoS1.wav,1,1,3,9,,,,,1,3,19,8,0,7,7,2,,,,,,,,,1,0.7195983320052619,,,113,001,2019_Sep_11_1516,MusicAffectPsychophysiology2019,3.0.5,60.09529105821871,
To what extent did the music make you feel ,GUILTY,30MonoWAV/30MonoS1.wav,1,1,3,9,,,,,1,3,19,8,0,8,8,5,,,,,,,,,1,0.5860652080009459,,,113,001,2019_Sep_11_1516,MusicAffectPsychophysiology2019,3.0.5,60.09529105821871,
To what extent did the music make you feel ,FRUSTRATED,30MonoWAV/30MonoS1.wav,1,1,3,9,,,,,1,3,19,8,0,9,9,3,,,,,,,,,1,0.8512083730020095,,,113,001,2019_Sep_11_1516,MusicAffectPsychophysiology2019,3.0.5,60.09529105821871,
To what extent did the music make you feel ,ALERT,30MonoWAV/30MonoS1.wav,1,1,3,9,,,,,1,3,19,8,0,10,10,8,,,,,,,,,3,1.1853283879972878,,,113,001,2019_Sep_11_1516,MusicAffectPsychophysiology2019,3.0.5,60.09529105821871,
To what extent did the music make you feel ,SCARED,30MonoWAV/30MonoS1.wav,1,1,3,9,,,,,1,3,19,8,0,11,11,11,,,,,,,,,1,0.8186495560003095,,,113,001,2019_Sep_11_1516,MusicAffectPsychophysiology2019,3.0.5,60.09529105821871,
,,30MonoWAV/30MonoS1.wav,1,1,3,9,,,,,1,3,19,8,,,,,,,,,,,,,,,,,113,001,2019_Sep_11_1516,MusicAffectPsychophysiology2019,3.0.5,60.09529105821871,
To what extent did the music make you feel ,ANGRY,30MonoWAV/30MonoH3.wav,2,2,1,7,,,,,1,4,20,6,0,0,0,2,,,4,2.3195992230030242,3,1.6025305919974926,3,1.8354304099993897,1,0.9033116740029072,,,113,001,2019_Sep_11_1516,MusicAffectPsychophysiology2019,3.0.5,60.09529105821871,
To what extent did the music make you feel ,TENDER,30MonoWAV/30MonoH3.wav,2,2,1,7,,,,,1,4,20,6,0,1,1,10,,,,,,,,,2,1.0861692269972991,,,113,001,2019_Sep_11_1516,MusicAffectPsychophysiology2019,3.0.5,60.09529105821871,
To what extent did the music make you feel ,SCARED,30MonoWAV/30MonoH3.wav,2,2,1,7,,,,,1,4,20,6,0,2,2,11,,,,,,,,,2,1.4856715320056537,,,113,001,2019_Sep_11_1516,MusicAffectPsychophysiology2019,3.0.5,60.09529105821871,
To what extent did the music make you feel ,SAD,30MonoWAV/30MonoH3.wav,2,2,1,7,,,,,1,4,20,6,0,3,3,0,,,,,,,,,1,0.9865197120016092,,,113,001,2019_Sep_11_1516,MusicAffectPsychophysiology2019,3.0.5,60.09529105821871,
To what extent did the music make you feel ,ACTIVE,30MonoWAV/30MonoH3.wav,2,2,1,7,,,,,1,4,20,6,0,4,4,9,,,,,,,,,4,1.219777840997267,,,113,001,2019_Sep_11_1516,MusicAffectPsychophysiology2019,3.0.5,60.09529105821871,
To what extent did the music make you feel ,ALERT,30MonoWAV/30MonoH3.wav,2,2,1,7,,,,,1,4,20,6,0,5,5,8,,,,,,,,,5,1.2036503490016912,,,113,001,2019_Sep_11_1516,MusicAffectPsychophysiology2019,3.0.5,60.09529105821871,
To what extent did the music make you feel ,GUILTY,30MonoWAV/30MonoH3.wav,2,2,1,7,,,,,1,4,20,6,0,6,6,5,,,,,,,,,1,2.119752550999692,,,113,001,2019_Sep_11_1516,MusicAffectPsychophysiology2019,3.0.5,60.09529105821871,
To what extent did the music make you feel ,ANXIOUS ,30MonoWAV/30MonoH3.wav,2,2,1,7,,,,,1,4,20,6,0,7,7,1,,,,,,,,,2,1.087315482996928,,,113,001,2019_Sep_11_1516,MusicAffectPsychophysiology2019,3.0.5,60.09529105821871,
To what extent did the music make you feel ,FRUSTRATED,30MonoWAV/30MonoH3.wav,2,2,1,7,,,,,1,4,20,6,0,8,8,3,,,,,,,,,1,0.6201466229977086,,,113,001,2019_Sep_11_1516,MusicAffectPsychophysiology2019,3.0.5,60.09529105821871,
To what extent did the music make you feel ,EXCITED,30MonoWAV/30MonoH3.wav,2,2,1,7,,,,,1,4,20,6,0,9,9,7,,,,,,,,,3,1.0691971000051126,,,113,001,2019_Sep_11_1516,MusicAffectPsychophysiology2019,3.0.5,60.09529105821871,
To what extent did the music make you feel ,ASHAMED,30MonoWAV/30MonoH3.wav,2,2,1,7,,,,,1,4,20,6,0,10,10,4,,,,,,,,,1,0.8834119159946567,,,113,001,2019_Sep_11_1516,MusicAffectPsychophysiology2019,3.0.5,60.09529105821871,
To what extent did the music make you feel ,HAPPY,30MonoWAV/30MonoH3.wav,2,2,1,7,,,,,1,4,20,6,0,11,11,6,,,,,,,,,2,0.9202942560004885,,,113,001,2019_Sep_11_1516,MusicAffectPsychophysiology2019,3.0.5,60.09529105821871,
,,30MonoWAV/30MonoH3.wav,2,2,1,7,,,,,1,4,20,6,,,,,,,,,,,,,,,,,113,001,2019_Sep_11_1516,MusicAffectPsychophysiology2019,3.0.5,60.09529105821871,
To what extent did the music make you feel ,ANXIOUS ,30MonoWAV/30MonoH2.wav,2,2,1,6,,,,,1,5,21,5,0,0,0,1,,,2,3.5690505710008438,3,3.669540821996634,2,2.0021801320035593,1,1.3253202089981642,,,113,001,2019_Sep_11_1516,MusicAffectPsychophysiology2019,3.0.5,60.09529105821871,
To what extent did the music make you feel ,TENDER,30MonoWAV/30MonoH2.wav,2,2,1,6,,,,,1,5,21,5,0,1,1,10,,,,,,,,,1,1.0092408119962784,,,113,001,2019_Sep_11_1516,MusicAffectPsychophysiology2019,3.0.5,60.09529105821871,
To what extent did the music make you feel ,ASHAMED,30MonoWAV/30MonoH2.wav,2,2,1,6,,,,,1,5,21,5,0,2,2,4,,,,,,,,,1,0.7367152200022247,,,113,001,2019_Sep_11_1516,MusicAffectPsychophysiology2019,3.0.5,60.09529105821871,
To what extent did the music make you feel ,ALERT,30MonoWAV/30MonoH2.wav,2,2,1,6,,,,,1,5,21,5,0,3,3,8,,,,,,,,,2,1.8361147579998942,,,113,001,2019_Sep_11_1516,MusicAffectPsychophysiology2019,3.0.5,60.09529105821871,
To what extent did the music make you feel ,HAPPY,30MonoWAV/30MonoH2.wav,2,2,1,6,,,,,1,5,21,5,0,4,4,6,,,,,,,,,4,1.4688185570048518,,,113,001,2019_Sep_11_1516,MusicAffectPsychophysiology2019,3.0.5,60.09529105821871,
To what extent did the music make you feel ,GUILTY,30MonoWAV/30MonoH2.wav,2,2,1,6,,,,,1,5,21,5,0,5,5,5,,,,,,,,,1,1.5521784939992358,,,113,001,2019_Sep_11_1516,MusicAffectPsychophysiology2019,3.0.5,60.09529105821871,
To what extent did the music make you feel ,SCARED,30MonoWAV/30MonoH2.wav,2,2,1,6,,,,,1,5,21,5,0,6,6,11,,,,,,,,,1,1.267550709999341,,,113,001,2019_Sep_11_1516,MusicAffectPsychophysiology2019,3.0.5,60.09529105821871,
To what extent did the music make you feel ,EXCITED,30MonoWAV/30MonoH2.wav,2,2,1,6,,,,,1,5,21,5,0,7,7,7,,,,,,,,,2,1.2363465609960258,,,113,001,2019_Sep_11_1516,MusicAffectPsychophysiology2019,3.0.5,60.09529105821871,
To what extent did the music make you feel ,ACTIVE,30MonoWAV/30MonoH2.wav,2,2,1,6,,,,,1,5,21,5,0,8,8,9,,,,,,,,,2,1.2868433309995453,,,113,001,2019_Sep_11_1516,MusicAffectPsychophysiology2019,3.0.5,60.09529105821871,
To what extent did the music make you feel ,ANGRY,30MonoWAV/30MonoH2.wav,2,2,1,6,,,,,1,5,21,5,0,9,9,2,,,,,,,,,1,1.1013984219971462,,,113,001,2019_Sep_11_1516,MusicAffectPsychophysiology2019,3.0.5,60.09529105821871,
To what extent did the music make you feel ,SAD,30MonoWAV/30MonoH2.wav,2,2,1,6,,,,,1,5,21,5,0,10,10,0,,,,,,,,,2,1.2525261140035582,,,113,001,2019_Sep_11_1516,MusicAffectPsychophysiology2019,3.0.5,60.09529105821871,
To what extent did the music make you feel ,FRUSTRATED,30MonoWAV/30MonoH2.wav,2,2,1,6,,,,,1,5,21,5,0,11,11,3,,,,,,,,,1,2.006713721995766,,,113,001,2019_Sep_11_1516,MusicAffectPsychophysiology2019,3.0.5,60.09529105821871,
,,30MonoWAV/30MonoH2.wav,2,2,1,6,,,,,1,5,21,5,,,,,,,,,,,,,,,,,113,001,2019_Sep_11_1516,MusicAffectPsychophysiology2019,3.0.5,60.09529105821871,
To what extent did the music make you feel ,FRUSTRATED,30MonoWAV/30MonoH1.wav,2,2,1,5,,,,,1,6,22,4,0,0,0,3,,,3,3.002074474999972,5,1.9846421880065463,5,2.0190336129962816,1,1.4682135469993227,,,113,001,2019_Sep_11_1516,MusicAffectPsychophysiology2019,3.0.5,60.09529105821871,
To what extent did the music make you feel ,ANGRY,30MonoWAV/30MonoH1.wav,2,2,1,5,,,,,1,6,22,4,0,1,1,2,,,,,,,,,1,1.1201476299975184,,,113,001,2019_Sep_11_1516,MusicAffectPsychophysiology2019,3.0.5,60.09529105821871,
To what extent did the music make you feel ,TENDER,30MonoWAV/30MonoH1.wav,2,2,1,5,,,,,1,6,22,4,0,2,2,10,,,,,,,,,2,0.8520278600044549,,,113,001,2019_Sep_11_1516,MusicAffectPsychophysiology2019,3.0.5,60.09529105821871,
To what extent did the music make you feel ,EXCITED,30MonoWAV/30MonoH1.wav,2,2,1,5,,,,,1,6,22,4,0,3,3,7,,,,,,,,,3,1.4858327640031348,,,113,001,2019_Sep_11_1516,MusicAffectPsychophysiology2019,3.0.5,60.09529105821871,
To what extent did the music make you feel ,SCARED,30MonoWAV/30MonoH1.wav,2,2,1,5,,,,,1,6,22,4,0,4,4,11,,,,,,,,,1,0.768571153996163,,,113,001,2019_Sep_11_1516,MusicAffectPsychophysiology2019,3.0.5,60.09529105821871,
To what extent did the music make you feel ,SAD,30MonoWAV/30MonoH1.wav,2,2,1,5,,,,,1,6,22,4,0,5,5,0,,,,,,,,,1,1.4678565290014376,,,113,001,2019_Sep_11_1516,MusicAffectPsychophysiology2019,3.0.5,60.09529105821871,
To what extent did the music make you feel ,ANXIOUS ,30MonoWAV/30MonoH1.wav,2,2,1,5,,,,,1,6,22,4,0,6,6,1,,,,,,,,,2,1.135796587994264,,,113,001,2019_Sep_11_1516,MusicAffectPsychophysiology2019,3.0.5,60.09529105821871,
To what extent did the music make you feel ,ALERT,30MonoWAV/30MonoH1.wav,2,2,1,5,,,,,1,6,22,4,0,7,7,8,,,,,,,,,3,1.3199161260054098,,,113,001,2019_Sep_11_1516,MusicAffectPsychophysiology2019,3.0.5,60.09529105821871,
To what extent did the music make you feel ,GUILTY,30MonoWAV/30MonoH1.wav,2,2,1,5,,,,,1,6,22,4,0,8,8,5,,,,,,,,,1,0.8679855579975992,,,113,001,2019_Sep_11_1516,MusicAffectPsychophysiology2019,3.0.5,60.09529105821871,
To what extent did the music make you feel ,HAPPY,30MonoWAV/30MonoH1.wav,2,2,1,5,,,,,1,6,22,4,0,9,9,6,,,,,,,,,2,1.9351809520012466,,,113,001,2019_Sep_11_1516,MusicAffectPsychophysiology2019,3.0.5,60.09529105821871,
To what extent did the music make you feel ,ACTIVE,30MonoWAV/30MonoH1.wav,2,2,1,5,,,,,1,6,22,4,0,10,10,9,,,,,,,,,3,0.8358657200005837,,,113,001,2019_Sep_11_1516,MusicAffectPsychophysiology2019,3.0.5,60.09529105821871,
To what extent did the music make you feel ,ASHAMED,30MonoWAV/30MonoH1.wav,2,2,1,5,,,,,1,6,22,4,0,11,11,4,,,,,,,,,1,0.7023577289946843,,,113,001,2019_Sep_11_1516,MusicAffectPsychophysiology2019,3.0.5,60.09529105821871,
,,30MonoWAV/30MonoH1.wav,2,2,1,5,,,,,1,6,22,4,,,,,,,,,,,,,,,,,113,001,2019_Sep_11_1516,MusicAffectPsychophysiology2019,3.0.5,60.09529105821871,
To what extent did the music make you feel ,ACTIVE,30MonoWAV/30MonoF4.wav,1,2,2,4,,,,,1,7,23,3,0,0,0,9,,,2,24.9003953729989,2,1.1527261419978458,3,1.6027591129968641,1,1.8738589490021695,,,113,001,2019_Sep_11_1516,MusicAffectPsychophysiology2019,3.0.5,60.09529105821871,
To what extent did the music make you feel ,HAPPY,30MonoWAV/30MonoF4.wav,1,2,2,4,,,,,1,7,23,3,0,1,1,6,,,,,,,,,2,0.8193960110002081,,,113,001,2019_Sep_11_1516,MusicAffectPsychophysiology2019,3.0.5,60.09529105821871,
To what extent did the music make you feel ,ASHAMED,30MonoWAV/30MonoF4.wav,1,2,2,4,,,,,1,7,23,3,0,2,2,4,,,,,,,,,1,0.9689243370012264,,,113,001,2019_Sep_11_1516,MusicAffectPsychophysiology2019,3.0.5,60.09529105821871,
To what extent did the music make you feel ,TENDER,30MonoWAV/30MonoF4.wav,1,2,2,4,,,,,1,7,23,3,0,3,3,10,,,,,,,,,2,0.652407152003434,,,113,001,2019_Sep_11_1516,MusicAffectPsychophysiology2019,3.0.5,60.09529105821871,
To what extent did the music make you feel ,SAD,30MonoWAV/30MonoF4.wav,1,2,2,4,,,,,1,7,23,3,0,4,4,0,,,,,,,,,1,0.6185691659993608,,,113,001,2019_Sep_11_1516,MusicAffectPsychophysiology2019,3.0.5,60.09529105821871,
To what extent did the music make you feel ,GUILTY,30MonoWAV/30MonoF4.wav,1,2,2,4,,,,,1,7,23,3,0,5,5,5,,,,,,,,,1,0.7197287469971343,,,113,001,2019_Sep_11_1516,MusicAffectPsychophysiology2019,3.0.5,60.09529105821871,
To what extent did the music make you feel ,ANXIOUS ,30MonoWAV/30MonoF4.wav,1,2,2,4,,,,,1,7,23,3,0,6,6,1,,,,,,,,,2,0.6858054179974715,,,113,001,2019_Sep_11_1516,MusicAffectPsychophysiology2019,3.0.5,60.09529105821871,
To what extent did the music make you feel ,EXCITED,30MonoWAV/30MonoF4.wav,1,2,2,4,,,,,1,7,23,3,0,7,7,7,,,,,,,,,2,1.1689437929962878,,,113,001,2019_Sep_11_1516,MusicAffectPsychophysiology2019,3.0.5,60.09529105821871,
To what extent did the music make you feel ,SCARED,30MonoWAV/30MonoF4.wav,1,2,2,4,,,,,1,7,23,3,0,8,8,11,,,,,,,,,1,0.8162096739979461,,,113,001,2019_Sep_11_1516,MusicAffectPsychophysiology2019,3.0.5,60.09529105821871,
To what extent did the music make you feel ,FRUSTRATED,30MonoWAV/30MonoF4.wav,1,2,2,4,,,,,1,7,23,3,0,9,9,3,,,,,,,,,1,0.6190093510012957,,,113,001,2019_Sep_11_1516,MusicAffectPsychophysiology2019,3.0.5,60.09529105821871,
To what extent did the music make you feel ,ANGRY,30MonoWAV/30MonoF4.wav,1,2,2,4,,,,,1,7,23,3,0,10,10,2,,,,,,,,,1,0.6527989300011541,,,113,001,2019_Sep_11_1516,MusicAffectPsychophysiology2019,3.0.5,60.09529105821871,
To what extent did the music make you feel ,ALERT,30MonoWAV/30MonoF4.wav,1,2,2,4,,,,,1,7,23,3,0,11,11,8,,,,,,,,,2,0.7691735980042722,,,113,001,2019_Sep_11_1516,MusicAffectPsychophysiology2019,3.0.5,60.09529105821871,
,,30MonoWAV/30MonoF4.wav,1,2,2,4,,,,,1,7,23,3,,,,,,,,,,,,,,,,,113,001,2019_Sep_11_1516,MusicAffectPsychophysiology2019,3.0.5,60.09529105821871,
To what extent did the music make you feel ,SAD,30MonoWAV/30MonoT4.wav,2,1,4,16,,,,,1,8,24,15,0,0,0,0,,,4,2.868745884996315,4,1.434460346994456,3,1.1858145930018509,2,2.4691179579967866,,,113,001,2019_Sep_11_1516,MusicAffectPsychophysiology2019,3.0.5,60.09529105821871,
To what extent did the music make you feel ,ALERT,30MonoWAV/30MonoT4.wav,2,1,4,16,,,,,1,8,24,15,0,1,1,8,,,,,,,,,3,2.6024257600001874,,,113,001,2019_Sep_11_1516,MusicAffectPsychophysiology2019,3.0.5,60.09529105821871,
To what extent did the music make you feel ,TENDER,30MonoWAV/30MonoT4.wav,2,1,4,16,,,,,1,8,24,15,0,2,2,10,,,,,,,,,2,1.0041361980038346,,,113,001,2019_Sep_11_1516,MusicAffectPsychophysiology2019,3.0.5,60.09529105821871,
To what extent did the music make you feel ,GUILTY,30MonoWAV/30MonoT4.wav,2,1,4,16,,,,,1,8,24,15,0,3,3,5,,,,,,,,,1,1.2359236859992961,,,113,001,2019_Sep_11_1516,MusicAffectPsychophysiology2019,3.0.5,60.09529105821871,
To what extent did the music make you feel ,HAPPY,30MonoWAV/30MonoT4.wav,2,1,4,16,,,,,1,8,24,15,0,4,4,6,,,,,,,,,3,1.150260361006076,,,113,001,2019_Sep_11_1516,MusicAffectPsychophysiology2019,3.0.5,60.09529105821871,
To what extent did the music make you feel ,ASHAMED,30MonoWAV/30MonoT4.wav,2,1,4,16,,,,,1,8,24,15,0,5,5,4,,,,,,,,,1,0.8524633609995362,,,113,001,2019_Sep_11_1516,MusicAffectPsychophysiology2019,3.0.5,60.09529105821871,
To what extent did the music make you feel ,SCARED,30MonoWAV/30MonoT4.wav,2,1,4,16,,,,,1,8,24,15,0,6,6,11,,,,,,,,,1,0.8035095029990771,,,113,001,2019_Sep_11_1516,MusicAffectPsychophysiology2019,3.0.5,60.09529105821871,
To what extent did the music make you feel ,ANXIOUS ,30MonoWAV/30MonoT4.wav,2,1,4,16,,,,,1,8,24,15,0,7,7,1,,,,,,,,,1,0.7512404400040396,,,113,001,2019_Sep_11_1516,MusicAffectPsychophysiology2019,3.0.5,60.09529105821871,
To what extent did the music make you feel ,ANGRY,30MonoWAV/30MonoT4.wav,2,1,4,16,,,,,1,8,24,15,0,8,8,2,,,,,,,,,1,0.7858549650045461,,,113,001,2019_Sep_11_1516,MusicAffectPsychophysiology2019,3.0.5,60.09529105821871,
To what extent did the music make you feel ,FRUSTRATED,30MonoWAV/30MonoT4.wav,2,1,4,16,,,,,1,8,24,15,0,9,9,3,,,,,,,,,1,0.5697492390027037,,,113,001,2019_Sep_11_1516,MusicAffectPsychophysiology2019,3.0.5,60.09529105821871,
To what extent did the music make you feel ,ACTIVE,30MonoWAV/30MonoT4.wav,2,1,4,16,,,,,1,8,24,15,0,10,10,9,,,,,,,,,2,1.133604226000898,,,113,001,2019_Sep_11_1516,MusicAffectPsychophysiology2019,3.0.5,60.09529105821871,
To what extent did the music make you feel ,EXCITED,30MonoWAV/30MonoT4.wav,2,1,4,16,,,,,1,8,24,15,0,11,11,7,,,,,,,,,3,1.018407710995234,,,113,001,2019_Sep_11_1516,MusicAffectPsychophysiology2019,3.0.5,60.09529105821871,
,,30MonoWAV/30MonoT4.wav,2,1,4,16,,,,,1,8,24,15,,,,,,,,,,,,,,,,,113,001,2019_Sep_11_1516,MusicAffectPsychophysiology2019,3.0.5,60.09529105821871,
To what extent did the music make you feel ,HAPPY,30MonoWAV/30MonoS3.wav,1,1,3,11,,,,,1,9,25,10,0,0,0,6,,,3,3.603407258997322,2,2.36805415499839,4,1.5687226290028775,2,3.0135061760011013,,,113,001,2019_Sep_11_1516,MusicAffectPsychophysiology2019,3.0.5,60.09529105821871,
To what extent did the music make you feel ,EXCITED,30MonoWAV/30MonoS3.wav,1,1,3,11,,,,,1,9,25,10,0,1,1,7,,,,,,,,,2,1.5531946720002452,,,113,001,2019_Sep_11_1516,MusicAffectPsychophysiology2019,3.0.5,60.09529105821871,
To what extent did the music make you feel ,ACTIVE,30MonoWAV/30MonoS3.wav,1,1,3,11,,,,,1,9,25,10,0,2,2,9,,,,,,,,,2,1.1531672939963755,,,113,001,2019_Sep_11_1516,MusicAffectPsychophysiology2019,3.0.5,60.09529105821871,
To what extent did the music make you feel ,GUILTY,30MonoWAV/30MonoS3.wav,1,1,3,11,,,,,1,9,25,10,0,3,3,5,,,,,,,,,1,0.9667805640056031,,,113,001,2019_Sep_11_1516,MusicAffectPsychophysiology2019,3.0.5,60.09529105821871,
To what extent did the music make you feel ,SAD,30MonoWAV/30MonoS3.wav,1,1,3,11,,,,,1,9,25,10,0,4,4,0,,,,,,,,,3,1.4012712860057945,,,113,001,2019_Sep_11_1516,MusicAffectPsychophysiology2019,3.0.5,60.09529105821871,
To what extent did the music make you feel ,ANGRY,30MonoWAV/30MonoS3.wav,1,1,3,11,,,,,1,9,25,10,0,5,5,2,,,,,,,,,1,0.8193841089960188,,,113,001,2019_Sep_11_1516,MusicAffectPsychophysiology2019,3.0.5,60.09529105821871,
To what extent did the music make you feel ,ALERT,30MonoWAV/30MonoS3.wav,1,1,3,11,,,,,1,9,25,10,0,6,6,8,,,,,,,,,3,1.245494699003757,,,113,001,2019_Sep_11_1516,MusicAffectPsychophysiology2019,3.0.5,60.09529105821871,
To what extent did the music make you feel ,TENDER,30MonoWAV/30MonoS3.wav,1,1,3,11,,,,,1,9,25,10,0,7,7,10,,,,,,,,,2,0.8354424659992219,,,113,001,2019_Sep_11_1516,MusicAffectPsychophysiology2019,3.0.5,60.09529105821871,
To what extent did the music make you feel ,ANXIOUS ,30MonoWAV/30MonoS3.wav,1,1,3,11,,,,,1,9,25,10,0,8,8,1,,,,,,,,,2,1.368987368994567,,,113,001,2019_Sep_11_1516,MusicAffectPsychophysiology2019,3.0.5,60.09529105821871,
To what extent did the music make you feel ,FRUSTRATED,30MonoWAV/30MonoS3.wav,1,1,3,11,,,,,1,9,25,10,0,9,9,3,,,,,,,,,1,0.7619585130014457,,,113,001,2019_Sep_11_1516,MusicAffectPsychophysiology2019,3.0.5,60.09529105821871,
To what extent did the music make you feel ,SCARED,30MonoWAV/30MonoS3.wav,1,1,3,11,,,,,1,9,25,10,0,10,10,11,,,,,,,,,1,1.0528583609993802,,,113,001,2019_Sep_11_1516,MusicAffectPsychophysiology2019,3.0.5,60.09529105821871,
To what extent did the music make you feel ,ASHAMED,30MonoWAV/30MonoS3.wav,1,1,3,11,,,,,1,9,25,10,0,11,11,4,,,,,,,,,1,0.6856819759996142,,,113,001,2019_Sep_11_1516,MusicAffectPsychophysiology2019,3.0.5,60.09529105821871,
,,30MonoWAV/30MonoS3.wav,1,1,3,11,,,,,1,9,25,10,,,,,,,,,,,,,,,,,113,001,2019_Sep_11_1516,MusicAffectPsychophysiology2019,3.0.5,60.09529105821871,
To what extent did the music make you feel ,ANGRY,30MonoWAV/30MonoS4.wav,1,1,3,12,,,,,1,10,26,11,0,0,0,2,,,1,5.318103741003142,1,2.0180878469982417,3,2.47017735800182,1,2.690353199002857,,,113,001,2019_Sep_11_1516,MusicAffectPsychophysiology2019,3.0.5,60.09529105821871,
To what extent did the music make you feel ,FRUSTRATED,30MonoWAV/30MonoS4.wav,1,1,3,12,,,,,1,10,26,11,0,1,1,3,,,,,,,,,1,1.289189905000967,,,113,001,2019_Sep_11_1516,MusicAffectPsychophysiology2019,3.0.5,60.09529105821871,
To what extent did the music make you feel ,EXCITED,30MonoWAV/30MonoS4.wav,1,1,3,12,,,,,1,10,26,11,0,2,2,7,,,,,,,,,1,1.3188627780036768,,,113,001,2019_Sep_11_1516,MusicAffectPsychophysiology2019,3.0.5,60.09529105821871,
To what extent did the music make you feel ,GUILTY,30MonoWAV/30MonoS4.wav,1,1,3,12,,,,,1,10,26,11,0,3,3,5,,,,,,,,,1,1.9687741800007643,,,113,001,2019_Sep_11_1516,MusicAffectPsychophysiology2019,3.0.5,60.09529105821871,
To what extent did the music make you feel ,ASHAMED,30MonoWAV/30MonoS4.wav,1,1,3,12,,,,,1,10,26,11,0,4,4,4,,,,,,,,,2,1.9022593990011956,,,113,001,2019_Sep_11_1516,MusicAffectPsychophysiology2019,3.0.5,60.09529105821871,
To what extent did the music make you feel ,HAPPY,30MonoWAV/30MonoS4.wav,1,1,3,12,,,,,1,10,26,11,0,5,5,6,,,,,,,,,1,1.3528929849999258,,,113,001,2019_Sep_11_1516,MusicAffectPsychophysiology2019,3.0.5,60.09529105821871,
To what extent did the music make you feel ,SCARED,30MonoWAV/30MonoS4.wav,1,1,3,12,,,,,1,10,26,11,0,6,6,11,,,,,,,,,2,2.3723721689966624,,,113,001,2019_Sep_11_1516,MusicAffectPsychophysiology2019,3.0.5,60.09529105821871,
To what extent did the music make you feel ,SAD,30MonoWAV/30MonoS4.wav,1,1,3,12,,,,,1,10,26,11,0,7,7,0,,,,,,,,,4,1.4008042729983572,,,113,001,2019_Sep_11_1516,MusicAffectPsychophysiology2019,3.0.5,60.09529105821871,
To what extent did the music make you feel ,ACTIVE,30MonoWAV/30MonoS4.wav,1,1,3,12,,,,,1,10,26,11,0,8,8,9,,,,,,,,,1,0.9352549139948678,,,113,001,2019_Sep_11_1516,MusicAffectPsychophysiology2019,3.0.5,60.09529105821871,
To what extent did the music make you feel ,ALERT,30MonoWAV/30MonoS4.wav,1,1,3,12,,,,,1,10,26,11,0,9,9,8,,,,,,,,,2,1.1361701299974811,,,113,001,2019_Sep_11_1516,MusicAffectPsychophysiology2019,3.0.5,60.09529105821871,
To what extent did the music make you feel ,TENDER,30MonoWAV/30MonoS4.wav,1,1,3,12,,,,,1,10,26,11,0,10,10,10,,,,,,,,,2,0.9353334800034645,,,113,001,2019_Sep_11_1516,MusicAffectPsychophysiology2019,3.0.5,60.09529105821871,
To what extent did the music make you feel ,ANXIOUS ,30MonoWAV/30MonoS4.wav,1,1,3,12,,,,,1,10,26,11,0,11,11,1,,,,,,,,,2,0.969547981992946,,,113,001,2019_Sep_11_1516,MusicAffectPsychophysiology2019,3.0.5,60.09529105821871,
,,30MonoWAV/30MonoS4.wav,1,1,3,12,,,,,1,10,26,11,,,,,,,,,,,,,,,,,113,001,2019_Sep_11_1516,MusicAffectPsychophysiology2019,3.0.5,60.09529105821871,
To what extent did the music make you feel ,EXCITED,30MonoWAV/30MonoH4.wav,2,2,1,8,,,,,1,11,27,7,0,0,0,7,,,4,5.119014178002544,3,1.352145068005484,3,1.9028708609985188,3,1.6682217640045565,,,113,001,2019_Sep_11_1516,MusicAffectPsychophysiology2019,3.0.5,60.09529105821871,
To what extent did the music make you feel ,TENDER,30MonoWAV/30MonoH4.wav,2,2,1,8,,,,,1,11,27,7,0,1,1,10,,,,,,,,,2,0.8708561839957838,,,113,001,2019_Sep_11_1516,MusicAffectPsychophysiology2019,3.0.5,60.09529105821871,
To what extent did the music make you feel ,FRUSTRATED,30MonoWAV/30MonoH4.wav,2,2,1,8,,,,,1,11,27,7,0,2,2,3,,,,,,,,,2,1.3830487550003454,,,113,001,2019_Sep_11_1516,MusicAffectPsychophysiology2019,3.0.5,60.09529105821871,
To what extent did the music make you feel ,GUILTY,30MonoWAV/30MonoH4.wav,2,2,1,8,,,,,1,11,27,7,0,3,3,5,,,,,,,,,1,0.7365519769955426,,,113,001,2019_Sep_11_1516,MusicAffectPsychophysiology2019,3.0.5,60.09529105821871,
To what extent did the music make you feel ,ANXIOUS ,30MonoWAV/30MonoH4.wav,2,2,1,8,,,,,1,11,27,7,0,4,4,1,,,,,,,,,2,0.9015483480034163,,,113,001,2019_Sep_11_1516,MusicAffectPsychophysiology2019,3.0.5,60.09529105821871,
To what extent did the music make you feel ,ALERT,30MonoWAV/30MonoH4.wav,2,2,1,8,,,,,1,11,27,7,0,5,5,8,,,,,,,,,4,1.0196068170043873,,,113,001,2019_Sep_11_1516,MusicAffectPsychophysiology2019,3.0.5,60.09529105821871,
To what extent did the music make you feel ,ACTIVE,30MonoWAV/30MonoH4.wav,2,2,1,8,,,,,1,11,27,7,0,6,6,9,,,,,,,,,3,1.038181481002539,,,113,001,2019_Sep_11_1516,MusicAffectPsychophysiology2019,3.0.5,60.09529105821871,
To what extent did the music make you feel ,ASHAMED,30MonoWAV/30MonoH4.wav,2,2,1,8,,,,,1,11,27,7,0,7,7,4,,,,,,,,,1,1.2849128610032494,,,113,001,2019_Sep_11_1516,MusicAffectPsychophysiology2019,3.0.5,60.09529105821871,
To what extent did the music make you feel ,SAD,30MonoWAV/30MonoH4.wav,2,2,1,8,,,,,1,11,27,7,0,8,8,0,,,,,,,,,1,0.9867470049939584,,,113,001,2019_Sep_11_1516,MusicAffectPsychophysiology2019,3.0.5,60.09529105821871,
To what extent did the music make you feel ,SCARED,30MonoWAV/30MonoH4.wav,2,2,1,8,,,,,1,11,27,7,0,9,9,11,,,,,,,,,1,0.7691117830036092,,,113,001,2019_Sep_11_1516,MusicAffectPsychophysiology2019,3.0.5,60.09529105821871,
To what extent did the music make you feel ,ANGRY,30MonoWAV/30MonoH4.wav,2,2,1,8,,,,,1,11,27,7,0,10,10,2,,,,,,,,,1,0.6864857770051458,,,113,001,2019_Sep_11_1516,MusicAffectPsychophysiology2019,3.0.5,60.09529105821871,
To what extent did the music make you feel ,HAPPY,30MonoWAV/30MonoH4.wav,2,2,1,8,,,,,1,11,27,7,0,11,11,6,,,,,,,,,3,1.1351628720003646,,,113,001,2019_Sep_11_1516,MusicAffectPsychophysiology2019,3.0.5,60.09529105821871,
,,30MonoWAV/30MonoH4.wav,2,2,1,8,,,,,1,11,27,7,,,,,,,,,,,,,,,,,113,001,2019_Sep_11_1516,MusicAffectPsychophysiology2019,3.0.5,60.09529105821871,
To what extent did the music make you feel ,SCARED,30MonoWAV/30MonoS2.wav,1,1,3,10,,,,,1,12,28,9,0,0,0,11,,,1,3.136087825994764,1,3.085778183005459,2,1.9351157040000544,1,2.0582644530004472,,,113,001,2019_Sep_11_1516,MusicAffectPsychophysiology2019,3.0.5,60.09529105821871,
To what extent did the music make you feel ,EXCITED,30MonoWAV/30MonoS2.wav,1,1,3,10,,,,,1,12,28,9,0,1,1,7,,,,,,,,,1,1.3187075759997242,,,113,001,2019_Sep_11_1516,MusicAffectPsychophysiology2019,3.0.5,60.09529105821871,
To what extent did the music make you feel ,ANGRY,30MonoWAV/30MonoS2.wav,1,1,3,10,,,,,1,12,28,9,0,2,2,2,,,,,,,,,2,1.3857141269982094,,,113,001,2019_Sep_11_1516,MusicAffectPsychophysiology2019,3.0.5,60.09529105821871,
To what extent did the music make you feel ,ANXIOUS ,30MonoWAV/30MonoS2.wav,1,1,3,10,,,,,1,12,28,9,0,3,3,1,,,,,,,,,3,1.185498105995066,,,113,001,2019_Sep_11_1516,MusicAffectPsychophysiology2019,3.0.5,60.09529105821871,
To what extent did the music make you feel ,FRUSTRATED,30MonoWAV/30MonoS2.wav,1,1,3,10,,,,,1,12,28,9,0,4,4,3,,,,,,,,,2,1.2363376749999588,,,113,001,2019_Sep_11_1516,MusicAffectPsychophysiology2019,3.0.5,60.09529105821871,
To what extent did the music make you feel ,ALERT,30MonoWAV/30MonoS2.wav,1,1,3,10,,,,,1,12,28,9,0,5,5,8,,,,,,,,,3,1.2693825419992208,,,113,001,2019_Sep_11_1516,MusicAffectPsychophysiology2019,3.0.5,60.09529105821871,
To what extent did the music make you feel ,ACTIVE,30MonoWAV/30MonoS2.wav,1,1,3,10,,,,,1,12,28,9,0,6,6,9,,,,,,,,,1,1.1023533419938758,,,113,001,2019_Sep_11_1516,MusicAffectPsychophysiology2019,3.0.5,60.09529105821871,
To what extent did the music make you feel ,GUILTY,30MonoWAV/30MonoS2.wav,1,1,3,10,,,,,1,12,28,9,0,7,7,5,,,,,,,,,2,1.6688278680012445,,,113,001,2019_Sep_11_1516,MusicAffectPsychophysiology2019,3.0.5,60.09529105821871,
To what extent did the music make you feel ,SAD,30MonoWAV/30MonoS2.wav,1,1,3,10,,,,,1,12,28,9,0,8,8,0,,,,,,,,,4,1.5837678450043313,,,113,001,2019_Sep_11_1516,MusicAffectPsychophysiology2019,3.0.5,60.09529105821871,
To what extent did the music make you feel ,TENDER,30MonoWAV/30MonoS2.wav,1,1,3,10,,,,,1,12,28,9,0,9,9,10,,,,,,,,,2,1.0686663239976042,,,113,001,2019_Sep_11_1516,MusicAffectPsychophysiology2019,3.0.5,60.09529105821871,
To what extent did the music make you feel ,HAPPY,30MonoWAV/30MonoS2.wav,1,1,3,10,,,,,1,12,28,9,0,10,10,6,,,,,,,,,1,0.935368437996658,,,113,001,2019_Sep_11_1516,MusicAffectPsychophysiology2019,3.0.5,60.09529105821871,
To what extent did the music make you feel ,ASHAMED,30MonoWAV/30MonoS2.wav,1,1,3,10,,,,,1,12,28,9,0,11,11,4,,,,,,,,,2,0.9859858030031319,,,113,001,2019_Sep_11_1516,MusicAffectPsychophysiology2019,3.0.5,60.09529105821871,
,,30MonoWAV/30MonoS2.wav,1,1,3,10,,,,,1,12,28,9,,,,,,,,,,,,,,,,,113,001,2019_Sep_11_1516,MusicAffectPsychophysiology2019,3.0.5,60.09529105821871,
To what extent did the music make you feel ,ANXIOUS ,30MonoWAV/30MonoF2.wav,1,2,2,2,,,,,1,13,29,1,0,0,0,1,,,3,3.883469820000755,1,1.6854713349966914,2,2.467273649002891,4,2.8022324909979943,,,113,001,2019_Sep_11_1516,MusicAffectPsychophysiology2019,3.0.5,60.09529105821871,
To what extent did the music make you feel ,SCARED,30MonoWAV/30MonoF2.wav,1,2,2,2,,,,,1,13,29,1,0,1,1,11,,,,,,,,,3,1.5860989120046725,,,113,001,2019_Sep_11_1516,MusicAffectPsychophysiology2019,3.0.5,60.09529105821871,
To what extent did the music make you feel ,SAD,30MonoWAV/30MonoF2.wav,1,2,2,2,,,,,1,13,29,1,0,2,2,0,,,,,,,,,1,1.6354685810001683,,,113,001,2019_Sep_11_1516,MusicAffectPsychophysiology2019,3.0.5,60.09529105821871,
To what extent did the music make you feel ,ASHAMED,30MonoWAV/30MonoF2.wav,1,2,2,2,,,,,1,13,29,1,0,3,3,4,,,,,,,,,1,1.1680672240036074,,,113,001,2019_Sep_11_1516,MusicAffectPsychophysiology2019,3.0.5,60.09529105821871,
To what extent did the music make you feel ,ALERT,30MonoWAV/30MonoF2.wav,1,2,2,2,,,,,1,13,29,1,0,4,4,8,,,,,,,,,5,1.802290166997409,,,113,001,2019_Sep_11_1516,MusicAffectPsychophysiology2019,3.0.5,60.09529105821871,
To what extent did the music make you feel ,TENDER,30MonoWAV/30MonoF2.wav,1,2,2,2,,,,,1,13,29,1,0,5,5,10,,,,,,,,,4,0.019308174996695016,,,113,001,2019_Sep_11_1516,MusicAffectPsychophysiology2019,3.0.5,60.09529105821871,
To what extent did the music make you feel ,EXCITED,30MonoWAV/30MonoF2.wav,1,2,2,2,,,,,1,13,29,1,0,6,6,7,,,,,,,,,1,6.3020691459969385,,,113,001,2019_Sep_11_1516,MusicAffectPsychophysiology2019,3.0.5,60.09529105821871,
To what extent did the music make you feel ,ANGRY,30MonoWAV/30MonoF2.wav,1,2,2,2,,,,,1,13,29,1,0,7,7,2,,,,,,,,,2,1.0842744350011344,,,113,001,2019_Sep_11_1516,MusicAffectPsychophysiology2019,3.0.5,60.09529105821871,
To what extent did the music make you feel ,HAPPY,30MonoWAV/30MonoF2.wav,1,2,2,2,,,,,1,13,29,1,0,8,8,6,,,,,,,,,1,1.0360752810011036,,,113,001,2019_Sep_11_1516,MusicAffectPsychophysiology2019,3.0.5,60.09529105821871,
To what extent did the music make you feel ,ACTIVE,30MonoWAV/30MonoF2.wav,1,2,2,2,,,,,1,13,29,1,0,9,9,9,,,,,,,,,4,1.0524780510022538,,,113,001,2019_Sep_11_1516,MusicAffectPsychophysiology2019,3.0.5,60.09529105821871,
To what extent did the music make you feel ,FRUSTRATED,30MonoWAV/30MonoF2.wav,1,2,2,2,,,,,1,13,29,1,0,10,10,3,,,,,,,,,2,1.4832984489985392,,,113,001,2019_Sep_11_1516,MusicAffectPsychophysiology2019,3.0.5,60.09529105821871,
To what extent did the music make you feel ,GUILTY,30MonoWAV/30MonoF2.wav,1,2,2,2,,,,,1,13,29,1,0,11,11,5,,,,,,,,,2,1.935111335995316,,,113,001,2019_Sep_11_1516,MusicAffectPsychophysiology2019,3.0.5,60.09529105821871,
,,30MonoWAV/30MonoF2.wav,1,2,2,2,,,,,1,13,29,1,,,,,,,,,,,,,,,,,113,001,2019_Sep_11_1516,MusicAffectPsychophysiology2019,3.0.5,60.09529105821871,
To what extent did the music make you feel ,ANGRY,30MonoWAV/30MonoF1.wav,1,2,2,1,,,,,1,14,30,0,0,0,0,2,,,3,2.669327423995128,2,1.718346718000248,1,2.80313103399385,2,1.6267758590038284,,,113,001,2019_Sep_11_1516,MusicAffectPsychophysiology2019,3.0.5,60.09529105821871,
To what extent did the music make you feel ,ALERT,30MonoWAV/30MonoF1.wav,1,2,2,1,,,,,1,14,30,0,0,1,1,8,,,,,,,,,4,1.0527333680001902,,,113,001,2019_Sep_11_1516,MusicAffectPsychophysiology2019,3.0.5,60.09529105821871,
To what extent did the music make you feel ,SAD,30MonoWAV/30MonoF1.wav,1,2,2,1,,,,,1,14,30,0,0,2,2,0,,,,,,,,,1,0.9689157610046095,,,113,001,2019_Sep_11_1516,MusicAffectPsychophysiology2019,3.0.5,60.09529105821871,
To what extent did the music make you feel ,HAPPY,30MonoWAV/30MonoF1.wav,1,2,2,1,,,,,1,14,30,0,0,3,3,6,,,,,,,,,1,1.40344409699901,,,113,001,2019_Sep_11_1516,MusicAffectPsychophysiology2019,3.0.5,60.09529105821871,
To what extent did the music make you feel ,TENDER,30MonoWAV/30MonoF1.wav,1,2,2,1,,,,,1,14,30,0,0,4,4,10,,,,,,,,,2,0.7351426599998376,,,113,001,2019_Sep_11_1516,MusicAffectPsychophysiology2019,3.0.5,60.09529105821871,
To what extent did the music make you feel ,FRUSTRATED,30MonoWAV/30MonoF1.wav,1,2,2,1,,,,,1,14,30,0,0,5,5,3,,,,,,,,,3,1.766427961003501,,,113,001,2019_Sep_11_1516,MusicAffectPsychophysiology2019,3.0.5,60.09529105821871,
To what extent did the music make you feel ,SCARED,30MonoWAV/30MonoF1.wav,1,2,2,1,,,,,1,14,30,0,0,6,6,11,,,,,,,,,2,1.2691804479982238,,,113,001,2019_Sep_11_1516,MusicAffectPsychophysiology2019,3.0.5,60.09529105821871,
To what extent did the music make you feel ,GUILTY,30MonoWAV/30MonoF1.wav,1,2,2,1,,,,,1,14,30,0,0,7,7,5,,,,,,,,,1,1.3037843070051167,,,113,001,2019_Sep_11_1516,MusicAffectPsychophysiology2019,3.0.5,60.09529105821871,
To what extent did the music make you feel ,ANXIOUS ,30MonoWAV/30MonoF1.wav,1,2,2,1,,,,,1,14,30,0,0,8,8,1,,,,,,,,,3,1.604148690996226,,,113,001,2019_Sep_11_1516,MusicAffectPsychophysiology2019,3.0.5,60.09529105821871,
To what extent did the music make you feel ,ACTIVE,30MonoWAV/30MonoF1.wav,1,2,2,1,,,,,1,14,30,0,0,9,9,9,,,,,,,,,1,2.0361343740005395,,,113,001,2019_Sep_11_1516,MusicAffectPsychophysiology2019,3.0.5,60.09529105821871,
To what extent did the music make you feel ,ASHAMED,30MonoWAV/30MonoF1.wav,1,2,2,1,,,,,1,14,30,0,0,10,10,4,,,,,,,,,1,2.9020706260052975,,,113,001,2019_Sep_11_1516,MusicAffectPsychophysiology2019,3.0.5,60.09529105821871,
To what extent did the music make you feel ,EXCITED,30MonoWAV/30MonoF1.wav,1,2,2,1,,,,,1,14,30,0,0,11,11,7,,,,,,,,,1,1.2876805960040656,,,113,001,2019_Sep_11_1516,MusicAffectPsychophysiology2019,3.0.5,60.09529105821871,
,,30MonoWAV/30MonoF1.wav,1,2,2,1,,,,,1,14,30,0,,,,,,,,,,,,,,,,,113,001,2019_Sep_11_1516,MusicAffectPsychophysiology2019,3.0.5,60.09529105821871,
To what extent did the music make you feel ,SAD,30MonoWAV/30MonoF3.wav,1,2,2,3,,,,,1,15,31,2,0,0,0,0,,,4,5.25141913099651,2,2.399605423997855,4,2.4017007410002407,1,2.1342624699973385,,,113,001,2019_Sep_11_1516,MusicAffectPsychophysiology2019,3.0.5,60.09529105821871,
To what extent did the music make you feel ,ASHAMED,30MonoWAV/30MonoF3.wav,1,2,2,3,,,,,1,15,31,2,0,1,1,4,,,,,,,,,1,1.0026382810028736,,,113,001,2019_Sep_11_1516,MusicAffectPsychophysiology2019,3.0.5,60.09529105821871,
To what extent did the music make you feel ,FRUSTRATED,30MonoWAV/30MonoF3.wav,1,2,2,3,,,,,1,15,31,2,0,2,2,3,,,,,,,,,1,1.7675317030007136,,,113,001,2019_Sep_11_1516,MusicAffectPsychophysiology2019,3.0.5,60.09529105821871,
To what extent did the music make you feel ,SCARED,30MonoWAV/30MonoF3.wav,1,2,2,3,,,,,1,15,31,2,0,3,3,11,,,,,,,,,2,1.3526836309974897,,,113,001,2019_Sep_11_1516,MusicAffectPsychophysiology2019,3.0.5,60.09529105821871,
To what extent did the music make you feel ,ACTIVE,30MonoWAV/30MonoF3.wav,1,2,2,3,,,,,1,15,31,2,0,4,4,9,,,,,,,,,3,2.3189103430049727,,,113,001,2019_Sep_11_1516,MusicAffectPsychophysiology2019,3.0.5,60.09529105821871,
To what extent did the music make you feel ,TENDER,30MonoWAV/30MonoF3.wav,1,2,2,3,,,,,1,15,31,2,0,5,5,10,,,,,,,,,2,0.9365295570023591,,,113,001,2019_Sep_11_1516,MusicAffectPsychophysiology2019,3.0.5,60.09529105821871,
To what extent did the music make you feel ,ANXIOUS ,30MonoWAV/30MonoF3.wav,1,2,2,3,,,,,1,15,31,2,0,6,6,1,,,,,,,,,2,2.9865497539940407,,,113,001,2019_Sep_11_1516,MusicAffectPsychophysiology2019,3.0.5,60.09529105821871,
To what extent did the music make you feel ,EXCITED,30MonoWAV/30MonoF3.wav,1,2,2,3,,,,,1,15,31,2,0,7,7,7,,,,,,,,,3,1.268011166001088,,,113,001,2019_Sep_11_1516,MusicAffectPsychophysiology2019,3.0.5,60.09529105821871,
To what extent did the music make you feel ,GUILTY,30MonoWAV/30MonoF3.wav,1,2,2,3,,,,,1,15,31,2,0,8,8,5,,,,,,,,,1,1.1001909139959025,,,113,001,2019_Sep_11_1516,MusicAffectPsychophysiology2019,3.0.5,60.09529105821871,
To what extent did the music make you feel ,HAPPY,30MonoWAV/30MonoF3.wav,1,2,2,3,,,,,1,15,31,2,0,9,9,6,,,,,,,,,1,1.2025073210024857,,,113,001,2019_Sep_11_1516,MusicAffectPsychophysiology2019,3.0.5,60.09529105821871,
To what extent did the music make you feel ,ALERT,30MonoWAV/30MonoF3.wav,1,2,2,3,,,,,1,15,31,2,0,10,10,8,,,,,,,,,4,1.185458676001872,,,113,001,2019_Sep_11_1516,MusicAffectPsychophysiology2019,3.0.5,60.09529105821871,
To what extent did the music make you feel ,ANGRY,30MonoWAV/30MonoF3.wav,1,2,2,3,,,,,1,15,31,2,0,11,11,2,,,,,,,,,1,1.5662346620010794,,,113,001,2019_Sep_11_1516,MusicAffectPsychophysiology2019,3.0.5,60.09529105821871,
,,30MonoWAV/30MonoF3.wav,1,2,2,3,,,,,1,15,31,2,,,,,,,,,,,,,,,,,113,001,2019_Sep_11_1516,MusicAffectPsychophysiology2019,3.0.5,60.09529105821871,
,,,,,,,,,,,,,,,,,,,,,,,,,,,,,space,7.851712789997691,113,001,2019_Sep_11_1516,MusicAffectPsychophysiology2019,3.0.5,60.09529105821871,
