Instruction,Word,song,valence,arousal,affectcat,songmark,pracwords.thisRepN,pracwords.thisTrialN,pracwords.thisN,pracwords.thisIndex,songtrials.thisRepN,songtrials.thisTrialN,songtrials.thisN,songtrials.thisIndex,words.thisRepN,words.thisTrialN,words.thisN,words.thisIndex,begin.keys,begin.rt,arousalkey.keys,arousalkey.rt,valencekey.keys,valencekey.rt,likekey.keys,likekey.rt,WordResponse.keys,WordResponse.rt,key_resp_2.keys,key_resp_2.rt,participant,session,date,expName,psychopyVersion,frameRate,
,,,,,,,,,,,,,,,,,,,space,15.26832788499999,,,,,,,,,,,114,001,2019_Sep_19_1009,MusicAffectPsychophysiology2019,3.0.5,59.61282140162784,
,,,,,,,,,,,,,,,,,,,,,4,6.2345229839999945,,,,,,,,,114,001,2019_Sep_19_1009,MusicAffectPsychophysiology2019,3.0.5,59.61282140162784,
,,,,,,,,,,,,,,,,,,,,,,,4,4.486799918999992,,,,,,,114,001,2019_Sep_19_1009,MusicAffectPsychophysiology2019,3.0.5,59.61282140162784,
,,,,,,,,,,,,,,,,,,,,,,,,,4,2.934951756000004,,,,,114,001,2019_Sep_19_1009,MusicAffectPsychophysiology2019,3.0.5,59.61282140162784,
To what extent did the music make you feel ,TENDER,,,,,,0,0,0,10,,,,,,,,,,,,,,,,,4,5.254776146000012,,,114,001,2019_Sep_19_1009,MusicAffectPsychophysiology2019,3.0.5,59.61282140162784,
To what extent did the music make you feel ,ANGRY,,,,,,0,1,1,2,,,,,,,,,,,,,,,,,1,1.8363010010000096,,,114,001,2019_Sep_19_1009,MusicAffectPsychophysiology2019,3.0.5,59.61282140162784,
To what extent did the music make you feel ,SAD,,,,,,0,2,2,0,,,,,,,,,,,,,,,,,1,2.136561986000004,,,114,001,2019_Sep_19_1009,MusicAffectPsychophysiology2019,3.0.5,59.61282140162784,
To what extent did the music make you feel ,ALERT,,,,,,0,3,3,8,,,,,,,,,,,,,,,,,2,2.6712551020000035,,,114,001,2019_Sep_19_1009,MusicAffectPsychophysiology2019,3.0.5,59.61282140162784,
To what extent did the music make you feel ,ACTIVE,,,,,,0,4,4,9,,,,,,,,,,,,,,,,,2,2.5791533700000002,,,114,001,2019_Sep_19_1009,MusicAffectPsychophysiology2019,3.0.5,59.61282140162784,
To what extent did the music make you feel ,FRUSTRATED,,,,,,0,5,5,3,,,,,,,,,,,,,,,,,1,1.5338060939999991,,,114,001,2019_Sep_19_1009,MusicAffectPsychophysiology2019,3.0.5,59.61282140162784,
To what extent did the music make you feel ,SCARED,,,,,,0,6,6,11,,,,,,,,,,,,,,,,,1,1.301947236000018,,,114,001,2019_Sep_19_1009,MusicAffectPsychophysiology2019,3.0.5,59.61282140162784,
To what extent did the music make you feel ,HAPPY,,,,,,0,7,7,6,,,,,,,,,,,,,,,,,4,2.3540041880000047,,,114,001,2019_Sep_19_1009,MusicAffectPsychophysiology2019,3.0.5,59.61282140162784,
To what extent did the music make you feel ,ASHAMED,,,,,,0,8,8,4,,,,,,,,,,,,,,,,,1,1.554753359999978,,,114,001,2019_Sep_19_1009,MusicAffectPsychophysiology2019,3.0.5,59.61282140162784,
To what extent did the music make you feel ,GUILTY,,,,,,0,9,9,5,,,,,,,,,,,,,,,,,1,1.2192607180000152,,,114,001,2019_Sep_19_1009,MusicAffectPsychophysiology2019,3.0.5,59.61282140162784,
To what extent did the music make you feel ,EXCITED,,,,,,0,10,10,7,,,,,,,,,,,,,,,,,2,2.682137482999991,,,114,001,2019_Sep_19_1009,MusicAffectPsychophysiology2019,3.0.5,59.61282140162784,
To what extent did the music make you feel ,ANXIOUS ,,,,,,0,11,11,1,,,,,,,,,,,,,,,,,1,1.4167362849999847,,,114,001,2019_Sep_19_1009,MusicAffectPsychophysiology2019,3.0.5,59.61282140162784,
To what extent did the music make you feel ,ANGRY,30MonoWAV/30MonoT1.wav,2,1,4,13,,,,,0,0,0,12,0,0,0,2,,,2,4.999665812999979,3,4.351925455999947,3,2.135091942000031,1,1.949735823000026,,,114,001,2019_Sep_19_1009,MusicAffectPsychophysiology2019,3.0.5,59.61282140162784,
To what extent did the music make you feel ,TENDER,30MonoWAV/30MonoT1.wav,2,1,4,13,,,,,0,0,0,12,0,1,1,10,,,,,,,,,3,1.9521803999999747,,,114,001,2019_Sep_19_1009,MusicAffectPsychophysiology2019,3.0.5,59.61282140162784,
To what extent did the music make you feel ,SCARED,30MonoWAV/30MonoT1.wav,2,1,4,13,,,,,0,0,0,12,0,2,2,11,,,,,,,,,1,1.334857659000022,,,114,001,2019_Sep_19_1009,MusicAffectPsychophysiology2019,3.0.5,59.61282140162784,
To what extent did the music make you feel ,ANXIOUS ,30MonoWAV/30MonoT1.wav,2,1,4,13,,,,,0,0,0,12,0,3,3,1,,,,,,,,,1,3.0361413159999984,,,114,001,2019_Sep_19_1009,MusicAffectPsychophysiology2019,3.0.5,59.61282140162784,
To what extent did the music make you feel ,GUILTY,30MonoWAV/30MonoT1.wav,2,1,4,13,,,,,0,0,0,12,0,4,4,5,,,,,,,,,1,1.3203160809999872,,,114,001,2019_Sep_19_1009,MusicAffectPsychophysiology2019,3.0.5,59.61282140162784,
To what extent did the music make you feel ,ASHAMED,30MonoWAV/30MonoT1.wav,2,1,4,13,,,,,0,0,0,12,0,5,5,4,,,,,,,,,1,1.0682171770000082,,,114,001,2019_Sep_19_1009,MusicAffectPsychophysiology2019,3.0.5,59.61282140162784,
To what extent did the music make you feel ,FRUSTRATED,30MonoWAV/30MonoT1.wav,2,1,4,13,,,,,0,0,0,12,0,6,6,3,,,,,,,,,1,1.1670199440000033,,,114,001,2019_Sep_19_1009,MusicAffectPsychophysiology2019,3.0.5,59.61282140162784,
To what extent did the music make you feel ,HAPPY,30MonoWAV/30MonoT1.wav,2,1,4,13,,,,,0,0,0,12,0,7,7,6,,,,,,,,,3,1.902815965000002,,,114,001,2019_Sep_19_1009,MusicAffectPsychophysiology2019,3.0.5,59.61282140162784,
To what extent did the music make you feel ,ALERT,30MonoWAV/30MonoT1.wav,2,1,4,13,,,,,0,0,0,12,0,8,8,8,,,,,,,,,2,1.1858854699999597,,,114,001,2019_Sep_19_1009,MusicAffectPsychophysiology2019,3.0.5,59.61282140162784,
To what extent did the music make you feel ,EXCITED,30MonoWAV/30MonoT1.wav,2,1,4,13,,,,,0,0,0,12,0,9,9,7,,,,,,,,,2,1.9346472699999708,,,114,001,2019_Sep_19_1009,MusicAffectPsychophysiology2019,3.0.5,59.61282140162784,
To what extent did the music make you feel ,ACTIVE,30MonoWAV/30MonoT1.wav,2,1,4,13,,,,,0,0,0,12,0,10,10,9,,,,,,,,,2,1.9345891659999666,,,114,001,2019_Sep_19_1009,MusicAffectPsychophysiology2019,3.0.5,59.61282140162784,
To what extent did the music make you feel ,SAD,30MonoWAV/30MonoT1.wav,2,1,4,13,,,,,0,0,0,12,0,11,11,0,,,,,,,,,1,1.419058366999991,,,114,001,2019_Sep_19_1009,MusicAffectPsychophysiology2019,3.0.5,59.61282140162784,
,,30MonoWAV/30MonoT1.wav,2,1,4,13,,,,,0,0,0,12,,,,,,,,,,,,,,,,,114,001,2019_Sep_19_1009,MusicAffectPsychophysiology2019,3.0.5,59.61282140162784,
To what extent did the music make you feel ,HAPPY,30MonoWAV/30MonoF3.wav,1,2,2,3,,,,,0,1,1,2,0,0,0,6,,,2,7.635688734999974,2,4.0681727950000095,2,1.6035392199999592,3,2.2621275660000038,,,114,001,2019_Sep_19_1009,MusicAffectPsychophysiology2019,3.0.5,59.61282140162784,
To what extent did the music make you feel ,ASHAMED,30MonoWAV/30MonoF3.wav,1,2,2,3,,,,,0,1,1,2,0,1,1,4,,,,,,,,,1,1.3860823349999691,,,114,001,2019_Sep_19_1009,MusicAffectPsychophysiology2019,3.0.5,59.61282140162784,
To what extent did the music make you feel ,TENDER,30MonoWAV/30MonoF3.wav,1,2,2,3,,,,,0,1,1,2,0,2,2,10,,,,,,,,,2,1.8518595709999772,,,114,001,2019_Sep_19_1009,MusicAffectPsychophysiology2019,3.0.5,59.61282140162784,
To what extent did the music make you feel ,GUILTY,30MonoWAV/30MonoF3.wav,1,2,2,3,,,,,0,1,1,2,0,3,3,5,,,,,,,,,1,0.9189337230000092,,,114,001,2019_Sep_19_1009,MusicAffectPsychophysiology2019,3.0.5,59.61282140162784,
To what extent did the music make you feel ,ACTIVE,30MonoWAV/30MonoF3.wav,1,2,2,3,,,,,0,1,1,2,0,4,4,9,,,,,,,,,2,1.3363961969999991,,,114,001,2019_Sep_19_1009,MusicAffectPsychophysiology2019,3.0.5,59.61282140162784,
To what extent did the music make you feel ,ANGRY,30MonoWAV/30MonoF3.wav,1,2,2,3,,,,,0,1,1,2,0,5,5,2,,,,,,,,,1,0.8526422269999898,,,114,001,2019_Sep_19_1009,MusicAffectPsychophysiology2019,3.0.5,59.61282140162784,
To what extent did the music make you feel ,ANXIOUS ,30MonoWAV/30MonoF3.wav,1,2,2,3,,,,,0,1,1,2,0,6,6,1,,,,,,,,,1,1.769409544000041,,,114,001,2019_Sep_19_1009,MusicAffectPsychophysiology2019,3.0.5,59.61282140162784,
To what extent did the music make you feel ,EXCITED,30MonoWAV/30MonoF3.wav,1,2,2,3,,,,,0,1,1,2,0,7,7,7,,,,,,,,,2,1.4027971049999906,,,114,001,2019_Sep_19_1009,MusicAffectPsychophysiology2019,3.0.5,59.61282140162784,
To what extent did the music make you feel ,FRUSTRATED,30MonoWAV/30MonoF3.wav,1,2,2,3,,,,,0,1,1,2,0,8,8,3,,,,,,,,,1,0.9867693850000023,,,114,001,2019_Sep_19_1009,MusicAffectPsychophysiology2019,3.0.5,59.61282140162784,
To what extent did the music make you feel ,SAD,30MonoWAV/30MonoF3.wav,1,2,2,3,,,,,0,1,1,2,0,9,9,0,,,,,,,,,1,0.9347619360000294,,,114,001,2019_Sep_19_1009,MusicAffectPsychophysiology2019,3.0.5,59.61282140162784,
To what extent did the music make you feel ,SCARED,30MonoWAV/30MonoF3.wav,1,2,2,3,,,,,0,1,1,2,0,10,10,11,,,,,,,,,2,2.2693160250000233,,,114,001,2019_Sep_19_1009,MusicAffectPsychophysiology2019,3.0.5,59.61282140162784,
To what extent did the music make you feel ,ALERT,30MonoWAV/30MonoF3.wav,1,2,2,3,,,,,0,1,1,2,0,11,11,8,,,,,,,,,2,1.466566734999958,,,114,001,2019_Sep_19_1009,MusicAffectPsychophysiology2019,3.0.5,59.61282140162784,
,,30MonoWAV/30MonoF3.wav,1,2,2,3,,,,,0,1,1,2,,,,,,,,,,,,,,,,,114,001,2019_Sep_19_1009,MusicAffectPsychophysiology2019,3.0.5,59.61282140162784,
To what extent did the music make you feel ,GUILTY,30MonoWAV/30MonoS3.wav,1,1,3,11,,,,,0,2,2,10,0,0,0,5,,,2,5.269475804000024,1,6.284549720999962,2,1.1855474580000305,2,5.575806070999988,,,114,001,2019_Sep_19_1009,MusicAffectPsychophysiology2019,3.0.5,59.61282140162784,
To what extent did the music make you feel ,SAD,30MonoWAV/30MonoS3.wav,1,1,3,11,,,,,0,2,2,10,0,1,1,0,,,,,,,,,3,3.168825724000044,,,114,001,2019_Sep_19_1009,MusicAffectPsychophysiology2019,3.0.5,59.61282140162784,
To what extent did the music make you feel ,ASHAMED,30MonoWAV/30MonoS3.wav,1,1,3,11,,,,,0,2,2,10,0,2,2,4,,,,,,,,,1,1.435491146000004,,,114,001,2019_Sep_19_1009,MusicAffectPsychophysiology2019,3.0.5,59.61282140162784,
To what extent did the music make you feel ,TENDER,30MonoWAV/30MonoS3.wav,1,1,3,11,,,,,0,2,2,10,0,3,3,10,,,,,,,,,1,1.3685845640000025,,,114,001,2019_Sep_19_1009,MusicAffectPsychophysiology2019,3.0.5,59.61282140162784,
To what extent did the music make you feel ,ANGRY,30MonoWAV/30MonoS3.wav,1,1,3,11,,,,,0,2,2,10,0,4,4,2,,,,,,,,,1,1.2188245739999957,,,114,001,2019_Sep_19_1009,MusicAffectPsychophysiology2019,3.0.5,59.61282140162784,
To what extent did the music make you feel ,FRUSTRATED,30MonoWAV/30MonoS3.wav,1,1,3,11,,,,,0,2,2,10,0,5,5,3,,,,,,,,,1,0.8362069429999792,,,114,001,2019_Sep_19_1009,MusicAffectPsychophysiology2019,3.0.5,59.61282140162784,
To what extent did the music make you feel ,ALERT,30MonoWAV/30MonoS3.wav,1,1,3,11,,,,,0,2,2,10,0,6,6,8,,,,,,,,,1,1.2358137670000247,,,114,001,2019_Sep_19_1009,MusicAffectPsychophysiology2019,3.0.5,59.61282140162784,
To what extent did the music make you feel ,EXCITED,30MonoWAV/30MonoS3.wav,1,1,3,11,,,,,0,2,2,10,0,7,7,7,,,,,,,,,1,2.1022513730000014,,,114,001,2019_Sep_19_1009,MusicAffectPsychophysiology2019,3.0.5,59.61282140162784,
To what extent did the music make you feel ,ACTIVE,30MonoWAV/30MonoS3.wav,1,1,3,11,,,,,0,2,2,10,0,8,8,9,,,,,,,,,1,0.8691808300000048,,,114,001,2019_Sep_19_1009,MusicAffectPsychophysiology2019,3.0.5,59.61282140162784,
To what extent did the music make you feel ,HAPPY,30MonoWAV/30MonoS3.wav,1,1,3,11,,,,,0,2,2,10,0,9,9,6,,,,,,,,,1,0.7025628530000176,,,114,001,2019_Sep_19_1009,MusicAffectPsychophysiology2019,3.0.5,59.61282140162784,
To what extent did the music make you feel ,ANXIOUS ,30MonoWAV/30MonoS3.wav,1,1,3,11,,,,,0,2,2,10,0,10,10,1,,,,,,,,,2,1.134624849999966,,,114,001,2019_Sep_19_1009,MusicAffectPsychophysiology2019,3.0.5,59.61282140162784,
To what extent did the music make you feel ,SCARED,30MonoWAV/30MonoS3.wav,1,1,3,11,,,,,0,2,2,10,0,11,11,11,,,,,,,,,2,1.3501339040000175,,,114,001,2019_Sep_19_1009,MusicAffectPsychophysiology2019,3.0.5,59.61282140162784,
,,30MonoWAV/30MonoS3.wav,1,1,3,11,,,,,0,2,2,10,,,,,,,,,,,,,,,,,114,001,2019_Sep_19_1009,MusicAffectPsychophysiology2019,3.0.5,59.61282140162784,
To what extent did the music make you feel ,ALERT,30MonoWAV/30MonoF4.wav,1,2,2,4,,,,,0,3,3,3,0,0,0,8,,,3,4.0346503270000085,2,3.049695017999966,4,3.434547594000037,4,2.3849067070000274,,,114,001,2019_Sep_19_1009,MusicAffectPsychophysiology2019,3.0.5,59.61282140162784,
To what extent did the music make you feel ,TENDER,30MonoWAV/30MonoF4.wav,1,2,2,4,,,,,0,3,3,3,0,1,1,10,,,,,,,,,1,2.2367476189999707,,,114,001,2019_Sep_19_1009,MusicAffectPsychophysiology2019,3.0.5,59.61282140162784,
To what extent did the music make you feel ,ANGRY,30MonoWAV/30MonoF4.wav,1,2,2,4,,,,,0,3,3,3,0,2,2,2,,,,,,,,,1,1.2518042259999902,,,114,001,2019_Sep_19_1009,MusicAffectPsychophysiology2019,3.0.5,59.61282140162784,
To what extent did the music make you feel ,GUILTY,30MonoWAV/30MonoF4.wav,1,2,2,4,,,,,0,3,3,3,0,3,3,5,,,,,,,,,1,0.9862458860000061,,,114,001,2019_Sep_19_1009,MusicAffectPsychophysiology2019,3.0.5,59.61282140162784,
To what extent did the music make you feel ,EXCITED,30MonoWAV/30MonoF4.wav,1,2,2,4,,,,,0,3,3,3,0,4,4,7,,,,,,,,,3,1.6190193649999856,,,114,001,2019_Sep_19_1009,MusicAffectPsychophysiology2019,3.0.5,59.61282140162784,
To what extent did the music make you feel ,SAD,30MonoWAV/30MonoF4.wav,1,2,2,4,,,,,0,3,3,3,0,5,5,0,,,,,,,,,1,2.8523766219999516,,,114,001,2019_Sep_19_1009,MusicAffectPsychophysiology2019,3.0.5,59.61282140162784,
To what extent did the music make you feel ,ANXIOUS ,30MonoWAV/30MonoF4.wav,1,2,2,4,,,,,0,3,3,3,0,6,6,1,,,,,,,,,3,2.669430828999907,,,114,001,2019_Sep_19_1009,MusicAffectPsychophysiology2019,3.0.5,59.61282140162784,
To what extent did the music make you feel ,ACTIVE,30MonoWAV/30MonoF4.wav,1,2,2,4,,,,,0,3,3,3,0,7,7,9,,,,,,,,,3,1.451750498000024,,,114,001,2019_Sep_19_1009,MusicAffectPsychophysiology2019,3.0.5,59.61282140162784,
To what extent did the music make you feel ,FRUSTRATED,30MonoWAV/30MonoF4.wav,1,2,2,4,,,,,0,3,3,3,0,8,8,3,,,,,,,,,1,1.9199979590000567,,,114,001,2019_Sep_19_1009,MusicAffectPsychophysiology2019,3.0.5,59.61282140162784,
To what extent did the music make you feel ,ASHAMED,30MonoWAV/30MonoF4.wav,1,2,2,4,,,,,0,3,3,3,0,9,9,4,,,,,,,,,1,1.1202591909999455,,,114,001,2019_Sep_19_1009,MusicAffectPsychophysiology2019,3.0.5,59.61282140162784,
To what extent did the music make you feel ,HAPPY,30MonoWAV/30MonoF4.wav,1,2,2,4,,,,,0,3,3,3,0,10,10,6,,,,,,,,,1,3.286768823999978,,,114,001,2019_Sep_19_1009,MusicAffectPsychophysiology2019,3.0.5,59.61282140162784,
To what extent did the music make you feel ,SCARED,30MonoWAV/30MonoF4.wav,1,2,2,4,,,,,0,3,3,3,0,11,11,11,,,,,,,,,2,1.0016074410000328,,,114,001,2019_Sep_19_1009,MusicAffectPsychophysiology2019,3.0.5,59.61282140162784,
,,30MonoWAV/30MonoF4.wav,1,2,2,4,,,,,0,3,3,3,,,,,,,,,,,,,,,,,114,001,2019_Sep_19_1009,MusicAffectPsychophysiology2019,3.0.5,59.61282140162784,
To what extent did the music make you feel ,EXCITED,30MonoWAV/30MonoT3.wav,2,1,4,15,,,,,0,4,4,14,0,0,0,7,,,1,4.8694121250000535,4,3.1852210330000617,4,1.5691409590000376,1,1.7151689910000414,,,114,001,2019_Sep_19_1009,MusicAffectPsychophysiology2019,3.0.5,59.61282140162784,
To what extent did the music make you feel ,HAPPY,30MonoWAV/30MonoT3.wav,2,1,4,15,,,,,0,4,4,14,0,1,1,6,,,,,,,,,3,2.368834985000035,,,114,001,2019_Sep_19_1009,MusicAffectPsychophysiology2019,3.0.5,59.61282140162784,
To what extent did the music make you feel ,ACTIVE,30MonoWAV/30MonoT3.wav,2,1,4,15,,,,,0,4,4,14,0,2,2,9,,,,,,,,,1,1.333382346999997,,,114,001,2019_Sep_19_1009,MusicAffectPsychophysiology2019,3.0.5,59.61282140162784,
To what extent did the music make you feel ,SAD,30MonoWAV/30MonoT3.wav,2,1,4,15,,,,,0,4,4,14,0,3,3,0,,,,,,,,,1,0.9513714019999497,,,114,001,2019_Sep_19_1009,MusicAffectPsychophysiology2019,3.0.5,59.61282140162784,
To what extent did the music make you feel ,TENDER,30MonoWAV/30MonoT3.wav,2,1,4,15,,,,,0,4,4,14,0,4,4,10,,,,,,,,,4,2.019635739000023,,,114,001,2019_Sep_19_1009,MusicAffectPsychophysiology2019,3.0.5,59.61282140162784,
To what extent did the music make you feel ,ALERT,30MonoWAV/30MonoT3.wav,2,1,4,15,,,,,0,4,4,14,0,5,5,8,,,,,,,,,1,1.204232908999984,,,114,001,2019_Sep_19_1009,MusicAffectPsychophysiology2019,3.0.5,59.61282140162784,
To what extent did the music make you feel ,ANGRY,30MonoWAV/30MonoT3.wav,2,1,4,15,,,,,0,4,4,14,0,6,6,2,,,,,,,,,1,0.8199211290000221,,,114,001,2019_Sep_19_1009,MusicAffectPsychophysiology2019,3.0.5,59.61282140162784,
To what extent did the music make you feel ,SCARED,30MonoWAV/30MonoT3.wav,2,1,4,15,,,,,0,4,4,14,0,7,7,11,,,,,,,,,1,0.7182679710000457,,,114,001,2019_Sep_19_1009,MusicAffectPsychophysiology2019,3.0.5,59.61282140162784,
To what extent did the music make you feel ,ANXIOUS ,30MonoWAV/30MonoT3.wav,2,1,4,15,,,,,0,4,4,14,0,8,8,1,,,,,,,,,1,0.7194685619999746,,,114,001,2019_Sep_19_1009,MusicAffectPsychophysiology2019,3.0.5,59.61282140162784,
To what extent did the music make you feel ,ASHAMED,30MonoWAV/30MonoT3.wav,2,1,4,15,,,,,0,4,4,14,0,9,9,4,,,,,,,,,1,0.8529953720000094,,,114,001,2019_Sep_19_1009,MusicAffectPsychophysiology2019,3.0.5,59.61282140162784,
To what extent did the music make you feel ,FRUSTRATED,30MonoWAV/30MonoT3.wav,2,1,4,15,,,,,0,4,4,14,0,10,10,3,,,,,,,,,1,0.7028586850000238,,,114,001,2019_Sep_19_1009,MusicAffectPsychophysiology2019,3.0.5,59.61282140162784,
To what extent did the music make you feel ,GUILTY,30MonoWAV/30MonoT3.wav,2,1,4,15,,,,,0,4,4,14,0,11,11,5,,,,,,,,,1,0.8362647249999782,,,114,001,2019_Sep_19_1009,MusicAffectPsychophysiology2019,3.0.5,59.61282140162784,
,,30MonoWAV/30MonoT3.wav,2,1,4,15,,,,,0,4,4,14,,,,,,,,,,,,,,,,,114,001,2019_Sep_19_1009,MusicAffectPsychophysiology2019,3.0.5,59.61282140162784,
To what extent did the music make you feel ,SAD,30MonoWAV/30MonoT4.wav,2,1,4,16,,,,,0,5,5,15,0,0,0,0,,,2,3.9180685649999987,4,3.1545530440000675,4,1.168254784999931,1,2.331874637999931,,,114,001,2019_Sep_19_1009,MusicAffectPsychophysiology2019,3.0.5,59.61282140162784,
To what extent did the music make you feel ,ANGRY,30MonoWAV/30MonoT4.wav,2,1,4,16,,,,,0,5,5,15,0,1,1,2,,,,,,,,,1,0.9173181669999622,,,114,001,2019_Sep_19_1009,MusicAffectPsychophysiology2019,3.0.5,59.61282140162784,
To what extent did the music make you feel ,ACTIVE,30MonoWAV/30MonoT4.wav,2,1,4,16,,,,,0,5,5,15,0,2,2,9,,,,,,,,,2,1.9345367109999643,,,114,001,2019_Sep_19_1009,MusicAffectPsychophysiology2019,3.0.5,59.61282140162784,
To what extent did the music make you feel ,ANXIOUS ,30MonoWAV/30MonoT4.wav,2,1,4,16,,,,,0,5,5,15,0,3,3,1,,,,,,,,,1,1.0358687760000294,,,114,001,2019_Sep_19_1009,MusicAffectPsychophysiology2019,3.0.5,59.61282140162784,
To what extent did the music make you feel ,GUILTY,30MonoWAV/30MonoT4.wav,2,1,4,16,,,,,0,5,5,15,0,4,4,5,,,,,,,,,1,0.9365036789999976,,,114,001,2019_Sep_19_1009,MusicAffectPsychophysiology2019,3.0.5,59.61282140162784,
To what extent did the music make you feel ,ALERT,30MonoWAV/30MonoT4.wav,2,1,4,16,,,,,0,5,5,15,0,5,5,8,,,,,,,,,2,1.5004065319999427,,,114,001,2019_Sep_19_1009,MusicAffectPsychophysiology2019,3.0.5,59.61282140162784,
To what extent did the music make you feel ,SCARED,30MonoWAV/30MonoT4.wav,2,1,4,16,,,,,0,5,5,15,0,6,6,11,,,,,,,,,1,0.9357246160000159,,,114,001,2019_Sep_19_1009,MusicAffectPsychophysiology2019,3.0.5,59.61282140162784,
To what extent did the music make you feel ,ASHAMED,30MonoWAV/30MonoT4.wav,2,1,4,16,,,,,0,5,5,15,0,7,7,4,,,,,,,,,1,1.3856132329999582,,,114,001,2019_Sep_19_1009,MusicAffectPsychophysiology2019,3.0.5,59.61282140162784,
To what extent did the music make you feel ,HAPPY,30MonoWAV/30MonoT4.wav,2,1,4,16,,,,,0,5,5,15,0,8,8,6,,,,,,,,,4,1.618602764000002,,,114,001,2019_Sep_19_1009,MusicAffectPsychophysiology2019,3.0.5,59.61282140162784,
To what extent did the music make you feel ,TENDER,30MonoWAV/30MonoT4.wav,2,1,4,16,,,,,0,5,5,15,0,9,9,10,,,,,,,,,4,1.8530882269999438,,,114,001,2019_Sep_19_1009,MusicAffectPsychophysiology2019,3.0.5,59.61282140162784,
To what extent did the music make you feel ,FRUSTRATED,30MonoWAV/30MonoT4.wav,2,1,4,16,,,,,0,5,5,15,0,10,10,3,,,,,,,,,1,1.2004738640000596,,,114,001,2019_Sep_19_1009,MusicAffectPsychophysiology2019,3.0.5,59.61282140162784,
To what extent did the music make you feel ,EXCITED,30MonoWAV/30MonoT4.wav,2,1,4,16,,,,,0,5,5,15,0,11,11,7,,,,,,,,,3,1.5351343459999498,,,114,001,2019_Sep_19_1009,MusicAffectPsychophysiology2019,3.0.5,59.61282140162784,
,,30MonoWAV/30MonoT4.wav,2,1,4,16,,,,,0,5,5,15,,,,,,,,,,,,,,,,,114,001,2019_Sep_19_1009,MusicAffectPsychophysiology2019,3.0.5,59.61282140162784,
To what extent did the music make you feel ,ASHAMED,30MonoWAV/30MonoH2.wav,2,2,1,6,,,,,0,6,6,5,0,0,0,4,,,4,6.284883263999973,3,1.4674839629999497,3,1.5004405319999705,1,2.635615440000038,,,114,001,2019_Sep_19_1009,MusicAffectPsychophysiology2019,3.0.5,59.61282140162784,
To what extent did the music make you feel ,ACTIVE,30MonoWAV/30MonoH2.wav,2,2,1,6,,,,,0,6,6,5,0,1,1,9,,,,,,,,,3,1.9183491690000665,,,114,001,2019_Sep_19_1009,MusicAffectPsychophysiology2019,3.0.5,59.61282140162784,
To what extent did the music make you feel ,EXCITED,30MonoWAV/30MonoH2.wav,2,2,1,6,,,,,0,6,6,5,0,2,2,7,,,,,,,,,2,1.7690073800000619,,,114,001,2019_Sep_19_1009,MusicAffectPsychophysiology2019,3.0.5,59.61282140162784,
To what extent did the music make you feel ,HAPPY,30MonoWAV/30MonoH2.wav,2,2,1,6,,,,,0,6,6,5,0,3,3,6,,,,,,,,,3,3.335680301000025,,,114,001,2019_Sep_19_1009,MusicAffectPsychophysiology2019,3.0.5,59.61282140162784,
To what extent did the music make you feel ,ANXIOUS ,30MonoWAV/30MonoH2.wav,2,2,1,6,,,,,0,6,6,5,0,4,4,1,,,,,,,,,1,1.2135639159999982,,,114,001,2019_Sep_19_1009,MusicAffectPsychophysiology2019,3.0.5,59.61282140162784,
To what extent did the music make you feel ,ALERT,30MonoWAV/30MonoH2.wav,2,2,1,6,,,,,0,6,6,5,0,5,5,8,,,,,,,,,2,1.1080766599999379,,,114,001,2019_Sep_19_1009,MusicAffectPsychophysiology2019,3.0.5,59.61282140162784,
To what extent did the music make you feel ,FRUSTRATED,30MonoWAV/30MonoH2.wav,2,2,1,6,,,,,0,6,6,5,0,6,6,3,,,,,,,,,1,0.9665570559999423,,,114,001,2019_Sep_19_1009,MusicAffectPsychophysiology2019,3.0.5,59.61282140162784,
To what extent did the music make you feel ,ANGRY,30MonoWAV/30MonoH2.wav,2,2,1,6,,,,,0,6,6,5,0,7,7,2,,,,,,,,,1,0.6171794240000281,,,114,001,2019_Sep_19_1009,MusicAffectPsychophysiology2019,3.0.5,59.61282140162784,
To what extent did the music make you feel ,GUILTY,30MonoWAV/30MonoH2.wav,2,2,1,6,,,,,0,6,6,5,0,8,8,5,,,,,,,,,1,0.5020483509999849,,,114,001,2019_Sep_19_1009,MusicAffectPsychophysiology2019,3.0.5,59.61282140162784,
To what extent did the music make you feel ,SAD,30MonoWAV/30MonoH2.wav,2,2,1,6,,,,,0,6,6,5,0,9,9,0,,,,,,,,,1,0.5036190450000504,,,114,001,2019_Sep_19_1009,MusicAffectPsychophysiology2019,3.0.5,59.61282140162784,
To what extent did the music make you feel ,TENDER,30MonoWAV/30MonoH2.wav,2,2,1,6,,,,,0,6,6,5,0,10,10,10,,,,,,,,,2,1.3188666390000208,,,114,001,2019_Sep_19_1009,MusicAffectPsychophysiology2019,3.0.5,59.61282140162784,
To what extent did the music make you feel ,SCARED,30MonoWAV/30MonoH2.wav,2,2,1,6,,,,,0,6,6,5,0,11,11,11,,,,,,,,,1,0.9336875590000773,,,114,001,2019_Sep_19_1009,MusicAffectPsychophysiology2019,3.0.5,59.61282140162784,
,,30MonoWAV/30MonoH2.wav,2,2,1,6,,,,,0,6,6,5,,,,,,,,,,,,,,,,,114,001,2019_Sep_19_1009,MusicAffectPsychophysiology2019,3.0.5,59.61282140162784,
To what extent did the music make you feel ,GUILTY,30MonoWAV/30MonoS2.wav,1,1,3,10,,,,,0,7,7,9,0,0,0,5,,,1,3.2355549919999476,1,2.635178622000012,2,2.23552539800005,2,2.137227660999997,,,114,001,2019_Sep_19_1009,MusicAffectPsychophysiology2019,3.0.5,59.61282140162784,
To what extent did the music make you feel ,ACTIVE,30MonoWAV/30MonoS2.wav,1,1,3,10,,,,,0,7,7,9,0,1,1,9,,,,,,,,,1,1.2146133200000122,,,114,001,2019_Sep_19_1009,MusicAffectPsychophysiology2019,3.0.5,59.61282140162784,
To what extent did the music make you feel ,EXCITED,30MonoWAV/30MonoS2.wav,1,1,3,10,,,,,0,7,7,9,0,2,2,7,,,,,,,,,1,1.0854276339999842,,,114,001,2019_Sep_19_1009,MusicAffectPsychophysiology2019,3.0.5,59.61282140162784,
To what extent did the music make you feel ,FRUSTRATED,30MonoWAV/30MonoS2.wav,1,1,3,10,,,,,0,7,7,9,0,3,3,3,,,,,,,,,1,2.351630671999942,,,114,001,2019_Sep_19_1009,MusicAffectPsychophysiology2019,3.0.5,59.61282140162784,
To what extent did the music make you feel ,ANGRY,30MonoWAV/30MonoS2.wav,1,1,3,10,,,,,0,7,7,9,0,4,4,2,,,,,,,,,1,1.2182819859999654,,,114,001,2019_Sep_19_1009,MusicAffectPsychophysiology2019,3.0.5,59.61282140162784,
To what extent did the music make you feel ,SAD,30MonoWAV/30MonoS2.wav,1,1,3,10,,,,,0,7,7,9,0,5,5,0,,,,,,,,,4,2.3006080989999873,,,114,001,2019_Sep_19_1009,MusicAffectPsychophysiology2019,3.0.5,59.61282140162784,
To what extent did the music make you feel ,SCARED,30MonoWAV/30MonoS2.wav,1,1,3,10,,,,,0,7,7,9,0,6,6,11,,,,,,,,,2,2.0533334939999577,,,114,001,2019_Sep_19_1009,MusicAffectPsychophysiology2019,3.0.5,59.61282140162784,
To what extent did the music make you feel ,ASHAMED,30MonoWAV/30MonoS2.wav,1,1,3,10,,,,,0,7,7,9,0,7,7,4,,,,,,,,,2,1.2690978690000065,,,114,001,2019_Sep_19_1009,MusicAffectPsychophysiology2019,3.0.5,59.61282140162784,
To what extent did the music make you feel ,ALERT,30MonoWAV/30MonoS2.wav,1,1,3,10,,,,,0,7,7,9,0,8,8,8,,,,,,,,,1,1.2025769680000167,,,114,001,2019_Sep_19_1009,MusicAffectPsychophysiology2019,3.0.5,59.61282140162784,
To what extent did the music make you feel ,ANXIOUS ,30MonoWAV/30MonoS2.wav,1,1,3,10,,,,,0,7,7,9,0,9,9,1,,,,,,,,,3,2.9521829809999645,,,114,001,2019_Sep_19_1009,MusicAffectPsychophysiology2019,3.0.5,59.61282140162784,
To what extent did the music make you feel ,HAPPY,30MonoWAV/30MonoS2.wav,1,1,3,10,,,,,0,7,7,9,0,10,10,6,,,,,,,,,1,1.2854240599999684,,,114,001,2019_Sep_19_1009,MusicAffectPsychophysiology2019,3.0.5,59.61282140162784,
To what extent did the music make you feel ,TENDER,30MonoWAV/30MonoS2.wav,1,1,3,10,,,,,0,7,7,9,0,11,11,10,,,,,,,,,1,1.0504217249999783,,,114,001,2019_Sep_19_1009,MusicAffectPsychophysiology2019,3.0.5,59.61282140162784,
,,30MonoWAV/30MonoS2.wav,1,1,3,10,,,,,0,7,7,9,,,,,,,,,,,,,,,,,114,001,2019_Sep_19_1009,MusicAffectPsychophysiology2019,3.0.5,59.61282140162784,
To what extent did the music make you feel ,HAPPY,30MonoWAV/30MonoS1.wav,1,1,3,9,,,,,0,8,8,8,0,0,0,6,,,1,3.5524813270000095,2,1.5692817509999486,2,1.552483178999978,1,1.3155838410000342,,,114,001,2019_Sep_19_1009,MusicAffectPsychophysiology2019,3.0.5,59.61282140162784,
To what extent did the music make you feel ,ANXIOUS ,30MonoWAV/30MonoS1.wav,1,1,3,9,,,,,0,8,8,8,0,1,1,1,,,,,,,,,3,2.7187256349999416,,,114,001,2019_Sep_19_1009,MusicAffectPsychophysiology2019,3.0.5,59.61282140162784,
To what extent did the music make you feel ,TENDER,30MonoWAV/30MonoS1.wav,1,1,3,9,,,,,0,8,8,8,0,2,2,10,,,,,,,,,3,1.3516945600000554,,,114,001,2019_Sep_19_1009,MusicAffectPsychophysiology2019,3.0.5,59.61282140162784,
To what extent did the music make you feel ,FRUSTRATED,30MonoWAV/30MonoS1.wav,1,1,3,9,,,,,0,8,8,8,0,3,3,3,,,,,,,,,1,1.1187955670000065,,,114,001,2019_Sep_19_1009,MusicAffectPsychophysiology2019,3.0.5,59.61282140162784,
To what extent did the music make you feel ,SAD,30MonoWAV/30MonoS1.wav,1,1,3,9,,,,,0,8,8,8,0,4,4,0,,,,,,,,,2,1.5180678189999526,,,114,001,2019_Sep_19_1009,MusicAffectPsychophysiology2019,3.0.5,59.61282140162784,
To what extent did the music make you feel ,EXCITED,30MonoWAV/30MonoS1.wav,1,1,3,9,,,,,0,8,8,8,0,5,5,7,,,,,,,,,1,1.1019967390000147,,,114,001,2019_Sep_19_1009,MusicAffectPsychophysiology2019,3.0.5,59.61282140162784,
To what extent did the music make you feel ,ALERT,30MonoWAV/30MonoS1.wav,1,1,3,9,,,,,0,8,8,8,0,6,6,8,,,,,,,,,1,1.117963699000029,,,114,001,2019_Sep_19_1009,MusicAffectPsychophysiology2019,3.0.5,59.61282140162784,
To what extent did the music make you feel ,ACTIVE,30MonoWAV/30MonoS1.wav,1,1,3,9,,,,,0,8,8,8,0,7,7,9,,,,,,,,,1,1.1522638080000434,,,114,001,2019_Sep_19_1009,MusicAffectPsychophysiology2019,3.0.5,59.61282140162784,
To what extent did the music make you feel ,SCARED,30MonoWAV/30MonoS1.wav,1,1,3,9,,,,,0,8,8,8,0,8,8,11,,,,,,,,,2,1.1534307539999418,,,114,001,2019_Sep_19_1009,MusicAffectPsychophysiology2019,3.0.5,59.61282140162784,
To what extent did the music make you feel ,GUILTY,30MonoWAV/30MonoS1.wav,1,1,3,9,,,,,0,8,8,8,0,9,9,5,,,,,,,,,1,1.152904804000059,,,114,001,2019_Sep_19_1009,MusicAffectPsychophysiology2019,3.0.5,59.61282140162784,
To what extent did the music make you feel ,ANGRY,30MonoWAV/30MonoS1.wav,1,1,3,9,,,,,0,8,8,8,0,10,10,2,,,,,,,,,1,1.6022882910000362,,,114,001,2019_Sep_19_1009,MusicAffectPsychophysiology2019,3.0.5,59.61282140162784,
To what extent did the music make you feel ,ASHAMED,30MonoWAV/30MonoS1.wav,1,1,3,9,,,,,0,8,8,8,0,11,11,4,,,,,,,,,1,1.4195842459999994,,,114,001,2019_Sep_19_1009,MusicAffectPsychophysiology2019,3.0.5,59.61282140162784,
,,30MonoWAV/30MonoS1.wav,1,1,3,9,,,,,0,8,8,8,,,,,,,,,,,,,,,,,114,001,2019_Sep_19_1009,MusicAffectPsychophysiology2019,3.0.5,59.61282140162784,
To what extent did the music make you feel ,ANGRY,30MonoWAV/30MonoS4.wav,1,1,3,12,,,,,0,9,9,11,0,0,0,2,,,2,3.4024221289998877,2,3.634968339000011,3,2.7693008329999884,1,1.518814773000031,,,114,001,2019_Sep_19_1009,MusicAffectPsychophysiology2019,3.0.5,59.61282140162784,
To what extent did the music make you feel ,ANXIOUS ,30MonoWAV/30MonoS4.wav,1,1,3,12,,,,,0,9,9,11,0,1,1,1,,,,,,,,,3,1.704023402999951,,,114,001,2019_Sep_19_1009,MusicAffectPsychophysiology2019,3.0.5,59.61282140162784,
To what extent did the music make you feel ,ACTIVE,30MonoWAV/30MonoS4.wav,1,1,3,12,,,,,0,9,9,11,0,2,2,9,,,,,,,,,1,1.4833726269999943,,,114,001,2019_Sep_19_1009,MusicAffectPsychophysiology2019,3.0.5,59.61282140162784,
To what extent did the music make you feel ,GUILTY,30MonoWAV/30MonoS4.wav,1,1,3,12,,,,,0,9,9,11,0,3,3,5,,,,,,,,,2,1.418121262999989,,,114,001,2019_Sep_19_1009,MusicAffectPsychophysiology2019,3.0.5,59.61282140162784,
To what extent did the music make you feel ,TENDER,30MonoWAV/30MonoS4.wav,1,1,3,12,,,,,0,9,9,11,0,4,4,10,,,,,,,,,2,1.152579279000065,,,114,001,2019_Sep_19_1009,MusicAffectPsychophysiology2019,3.0.5,59.61282140162784,
To what extent did the music make you feel ,SCARED,30MonoWAV/30MonoS4.wav,1,1,3,12,,,,,0,9,9,11,0,5,5,11,,,,,,,,,3,1.3192350710000937,,,114,001,2019_Sep_19_1009,MusicAffectPsychophysiology2019,3.0.5,59.61282140162784,
To what extent did the music make you feel ,ASHAMED,30MonoWAV/30MonoS4.wav,1,1,3,12,,,,,0,9,9,11,0,6,6,4,,,,,,,,,2,1.636382905000005,,,114,001,2019_Sep_19_1009,MusicAffectPsychophysiology2019,3.0.5,59.61282140162784,
To what extent did the music make you feel ,ALERT,30MonoWAV/30MonoS4.wav,1,1,3,12,,,,,0,9,9,11,0,7,7,8,,,,,,,,,1,1.0024880229999553,,,114,001,2019_Sep_19_1009,MusicAffectPsychophysiology2019,3.0.5,59.61282140162784,
To what extent did the music make you feel ,HAPPY,30MonoWAV/30MonoS4.wav,1,1,3,12,,,,,0,9,9,11,0,8,8,6,,,,,,,,,1,0.9697969410000269,,,114,001,2019_Sep_19_1009,MusicAffectPsychophysiology2019,3.0.5,59.61282140162784,
To what extent did the music make you feel ,SAD,30MonoWAV/30MonoS4.wav,1,1,3,12,,,,,0,9,9,11,0,9,9,0,,,,,,,,,3,2.502532919000032,,,114,001,2019_Sep_19_1009,MusicAffectPsychophysiology2019,3.0.5,59.61282140162784,
To what extent did the music make you feel ,EXCITED,30MonoWAV/30MonoS4.wav,1,1,3,12,,,,,0,9,9,11,0,10,10,7,,,,,,,,,1,2.8189041890000226,,,114,001,2019_Sep_19_1009,MusicAffectPsychophysiology2019,3.0.5,59.61282140162784,
To what extent did the music make you feel ,FRUSTRATED,30MonoWAV/30MonoS4.wav,1,1,3,12,,,,,0,9,9,11,0,11,11,3,,,,,,,,,1,0.8701425589999872,,,114,001,2019_Sep_19_1009,MusicAffectPsychophysiology2019,3.0.5,59.61282140162784,
,,30MonoWAV/30MonoS4.wav,1,1,3,12,,,,,0,9,9,11,,,,,,,,,,,,,,,,,114,001,2019_Sep_19_1009,MusicAffectPsychophysiology2019,3.0.5,59.61282140162784,
To what extent did the music make you feel ,HAPPY,30MonoWAV/30MonoH4.wav,2,2,1,8,,,,,0,10,10,7,0,0,0,6,,,5,6.668085933000043,5,1.803231432000075,5,1.1852128190000712,5,1.219110948999969,,,114,001,2019_Sep_19_1009,MusicAffectPsychophysiology2019,3.0.5,59.61282140162784,
To what extent did the music make you feel ,ALERT,30MonoWAV/30MonoH4.wav,2,2,1,8,,,,,0,10,10,7,0,1,1,8,,,,,,,,,4,1.5860087150000481,,,114,001,2019_Sep_19_1009,MusicAffectPsychophysiology2019,3.0.5,59.61282140162784,
To what extent did the music make you feel ,GUILTY,30MonoWAV/30MonoH4.wav,2,2,1,8,,,,,0,10,10,7,0,2,2,5,,,,,,,,,1,1.3030267039999899,,,114,001,2019_Sep_19_1009,MusicAffectPsychophysiology2019,3.0.5,59.61282140162784,
To what extent did the music make you feel ,FRUSTRATED,30MonoWAV/30MonoH4.wav,2,2,1,8,,,,,0,10,10,7,0,3,3,3,,,,,,,,,1,0.9866176259999975,,,114,001,2019_Sep_19_1009,MusicAffectPsychophysiology2019,3.0.5,59.61282140162784,
To what extent did the music make you feel ,ANGRY,30MonoWAV/30MonoH4.wav,2,2,1,8,,,,,0,10,10,7,0,4,4,2,,,,,,,,,1,0.8862327170000981,,,114,001,2019_Sep_19_1009,MusicAffectPsychophysiology2019,3.0.5,59.61282140162784,
To what extent did the music make you feel ,SAD,30MonoWAV/30MonoH4.wav,2,2,1,8,,,,,0,10,10,7,0,5,5,0,,,,,,,,,1,0.819172270000081,,,114,001,2019_Sep_19_1009,MusicAffectPsychophysiology2019,3.0.5,59.61282140162784,
To what extent did the music make you feel ,EXCITED,30MonoWAV/30MonoH4.wav,2,2,1,8,,,,,0,10,10,7,0,6,6,7,,,,,,,,,5,2.0511992500000815,,,114,001,2019_Sep_19_1009,MusicAffectPsychophysiology2019,3.0.5,59.61282140162784,
To what extent did the music make you feel ,ANXIOUS ,30MonoWAV/30MonoH4.wav,2,2,1,8,,,,,0,10,10,7,0,7,7,1,,,,,,,,,1,1.1027814510000553,,,114,001,2019_Sep_19_1009,MusicAffectPsychophysiology2019,3.0.5,59.61282140162784,
To what extent did the music make you feel ,ACTIVE,30MonoWAV/30MonoH4.wav,2,2,1,8,,,,,0,10,10,7,0,8,8,9,,,,,,,,,4,1.118024971000068,,,114,001,2019_Sep_19_1009,MusicAffectPsychophysiology2019,3.0.5,59.61282140162784,
To what extent did the music make you feel ,SCARED,30MonoWAV/30MonoH4.wav,2,2,1,8,,,,,0,10,10,7,0,9,9,11,,,,,,,,,1,1.0351687699999275,,,114,001,2019_Sep_19_1009,MusicAffectPsychophysiology2019,3.0.5,59.61282140162784,
To what extent did the music make you feel ,TENDER,30MonoWAV/30MonoH4.wav,2,2,1,8,,,,,0,10,10,7,0,10,10,10,,,,,,,,,4,1.1685630439999386,,,114,001,2019_Sep_19_1009,MusicAffectPsychophysiology2019,3.0.5,59.61282140162784,
To what extent did the music make you feel ,ASHAMED,30MonoWAV/30MonoH4.wav,2,2,1,8,,,,,0,10,10,7,0,11,11,4,,,,,,,,,1,1.170236697000064,,,114,001,2019_Sep_19_1009,MusicAffectPsychophysiology2019,3.0.5,59.61282140162784,
,,30MonoWAV/30MonoH4.wav,2,2,1,8,,,,,0,10,10,7,,,,,,,,,,,,,,,,,114,001,2019_Sep_19_1009,MusicAffectPsychophysiology2019,3.0.5,59.61282140162784,
To what extent did the music make you feel ,SCARED,30MonoWAV/30MonoH1.wav,2,2,1,5,,,,,0,11,11,4,0,0,0,11,,,4,3.2189882130001024,4,1.1516732059999413,4,1.034964281000157,1,1.7020042720000674,,,114,001,2019_Sep_19_1009,MusicAffectPsychophysiology2019,3.0.5,59.61282140162784,
To what extent did the music make you feel ,GUILTY,30MonoWAV/30MonoH1.wav,2,2,1,5,,,,,0,11,11,4,0,1,1,5,,,,,,,,,1,0.7689979179999682,,,114,001,2019_Sep_19_1009,MusicAffectPsychophysiology2019,3.0.5,59.61282140162784,
To what extent did the music make you feel ,ANGRY,30MonoWAV/30MonoH1.wav,2,2,1,5,,,,,0,11,11,4,0,2,2,2,,,,,,,,,1,0.5862350669999614,,,114,001,2019_Sep_19_1009,MusicAffectPsychophysiology2019,3.0.5,59.61282140162784,
To what extent did the music make you feel ,ASHAMED,30MonoWAV/30MonoH1.wav,2,2,1,5,,,,,0,11,11,4,0,3,3,4,,,,,,,,,1,0.6354982370000926,,,114,001,2019_Sep_19_1009,MusicAffectPsychophysiology2019,3.0.5,59.61282140162784,
To what extent did the music make you feel ,SAD,30MonoWAV/30MonoH1.wav,2,2,1,5,,,,,0,11,11,4,0,4,4,0,,,,,,,,,1,0.6692776289999074,,,114,001,2019_Sep_19_1009,MusicAffectPsychophysiology2019,3.0.5,59.61282140162784,
To what extent did the music make you feel ,FRUSTRATED,30MonoWAV/30MonoH1.wav,2,2,1,5,,,,,0,11,11,4,0,5,5,3,,,,,,,,,1,0.7862683880000532,,,114,001,2019_Sep_19_1009,MusicAffectPsychophysiology2019,3.0.5,59.61282140162784,
To what extent did the music make you feel ,EXCITED,30MonoWAV/30MonoH1.wav,2,2,1,5,,,,,0,11,11,4,0,6,6,7,,,,,,,,,4,1.6328685670000596,,,114,001,2019_Sep_19_1009,MusicAffectPsychophysiology2019,3.0.5,59.61282140162784,
To what extent did the music make you feel ,ANXIOUS ,30MonoWAV/30MonoH1.wav,2,2,1,5,,,,,0,11,11,4,0,7,7,1,,,,,,,,,1,1.6679388830000335,,,114,001,2019_Sep_19_1009,MusicAffectPsychophysiology2019,3.0.5,59.61282140162784,
To what extent did the music make you feel ,ALERT,30MonoWAV/30MonoH1.wav,2,2,1,5,,,,,0,11,11,4,0,8,8,8,,,,,,,,,3,1.6014693329998408,,,114,001,2019_Sep_19_1009,MusicAffectPsychophysiology2019,3.0.5,59.61282140162784,
To what extent did the music make you feel ,HAPPY,30MonoWAV/30MonoH1.wav,2,2,1,5,,,,,0,11,11,4,0,9,9,6,,,,,,,,,4,1.6201333669998803,,,114,001,2019_Sep_19_1009,MusicAffectPsychophysiology2019,3.0.5,59.61282140162784,
To what extent did the music make you feel ,TENDER,30MonoWAV/30MonoH1.wav,2,2,1,5,,,,,0,11,11,4,0,10,10,10,,,,,,,,,2,1.9349277860001166,,,114,001,2019_Sep_19_1009,MusicAffectPsychophysiology2019,3.0.5,59.61282140162784,
To what extent did the music make you feel ,ACTIVE,30MonoWAV/30MonoH1.wav,2,2,1,5,,,,,0,11,11,4,0,11,11,9,,,,,,,,,4,1.8534674390000418,,,114,001,2019_Sep_19_1009,MusicAffectPsychophysiology2019,3.0.5,59.61282140162784,
,,30MonoWAV/30MonoH1.wav,2,2,1,5,,,,,0,11,11,4,,,,,,,,,,,,,,,,,114,001,2019_Sep_19_1009,MusicAffectPsychophysiology2019,3.0.5,59.61282140162784,
To what extent did the music make you feel ,ANXIOUS ,30MonoWAV/30MonoT2.wav,2,1,4,14,,,,,0,12,12,13,0,0,0,1,,,2,5.430191982999986,3,2.2012757859999965,3,1.6352985290000106,2,2.2702950120001333,,,114,001,2019_Sep_19_1009,MusicAffectPsychophysiology2019,3.0.5,59.61282140162784,
To what extent did the music make you feel ,GUILTY,30MonoWAV/30MonoT2.wav,2,1,4,14,,,,,0,12,12,13,0,1,1,5,,,,,,,,,1,0.968486528000085,,,114,001,2019_Sep_19_1009,MusicAffectPsychophysiology2019,3.0.5,59.61282140162784,
To what extent did the music make you feel ,SCARED,30MonoWAV/30MonoT2.wav,2,1,4,14,,,,,0,12,12,13,0,2,2,11,,,,,,,,,1,0.6535231840000506,,,114,001,2019_Sep_19_1009,MusicAffectPsychophysiology2019,3.0.5,59.61282140162784,
To what extent did the music make you feel ,ACTIVE,30MonoWAV/30MonoT2.wav,2,1,4,14,,,,,0,12,12,13,0,3,3,9,,,,,,,,,2,0.9197703550000824,,,114,001,2019_Sep_19_1009,MusicAffectPsychophysiology2019,3.0.5,59.61282140162784,
To what extent did the music make you feel ,ASHAMED,30MonoWAV/30MonoT2.wav,2,1,4,14,,,,,0,12,12,13,0,4,4,4,,,,,,,,,1,0.7516308799999933,,,114,001,2019_Sep_19_1009,MusicAffectPsychophysiology2019,3.0.5,59.61282140162784,
To what extent did the music make you feel ,HAPPY,30MonoWAV/30MonoT2.wav,2,1,4,14,,,,,0,12,12,13,0,5,5,6,,,,,,,,,3,1.8166112100000191,,,114,001,2019_Sep_19_1009,MusicAffectPsychophysiology2019,3.0.5,59.61282140162784,
To what extent did the music make you feel ,ALERT,30MonoWAV/30MonoT2.wav,2,1,4,14,,,,,0,12,12,13,0,6,6,8,,,,,,,,,1,1.7691518330000235,,,114,001,2019_Sep_19_1009,MusicAffectPsychophysiology2019,3.0.5,59.61282140162784,
To what extent did the music make you feel ,FRUSTRATED,30MonoWAV/30MonoT2.wav,2,1,4,14,,,,,0,12,12,13,0,7,7,3,,,,,,,,,1,0.5520981320000828,,,114,001,2019_Sep_19_1009,MusicAffectPsychophysiology2019,3.0.5,59.61282140162784,
To what extent did the music make you feel ,TENDER,30MonoWAV/30MonoT2.wav,2,1,4,14,,,,,0,12,12,13,0,8,8,10,,,,,,,,,2,2.3353282260000015,,,114,001,2019_Sep_19_1009,MusicAffectPsychophysiology2019,3.0.5,59.61282140162784,
To what extent did the music make you feel ,EXCITED,30MonoWAV/30MonoT2.wav,2,1,4,14,,,,,0,12,12,13,0,9,9,7,,,,,,,,,2,1.4999985209999522,,,114,001,2019_Sep_19_1009,MusicAffectPsychophysiology2019,3.0.5,59.61282140162784,
To what extent did the music make you feel ,ANGRY,30MonoWAV/30MonoT2.wav,2,1,4,14,,,,,0,12,12,13,0,10,10,2,,,,,,,,,1,0.7855227999998533,,,114,001,2019_Sep_19_1009,MusicAffectPsychophysiology2019,3.0.5,59.61282140162784,
To what extent did the music make you feel ,SAD,30MonoWAV/30MonoT2.wav,2,1,4,14,,,,,0,12,12,13,0,11,11,0,,,,,,,,,1,1.1855369910001627,,,114,001,2019_Sep_19_1009,MusicAffectPsychophysiology2019,3.0.5,59.61282140162784,
,,30MonoWAV/30MonoT2.wav,2,1,4,14,,,,,0,12,12,13,,,,,,,,,,,,,,,,,114,001,2019_Sep_19_1009,MusicAffectPsychophysiology2019,3.0.5,59.61282140162784,
To what extent did the music make you feel ,HAPPY,30MonoWAV/30MonoH3.wav,2,2,1,7,,,,,0,13,13,6,0,0,0,6,,,4,4.235461562999944,4,1.835577761000195,3,1.9847842249998848,3,2.043269725000073,,,114,001,2019_Sep_19_1009,MusicAffectPsychophysiology2019,3.0.5,59.61282140162784,
To what extent did the music make you feel ,SAD,30MonoWAV/30MonoH3.wav,2,2,1,7,,,,,0,13,13,6,0,1,1,0,,,,,,,,,1,1.652257981000048,,,114,001,2019_Sep_19_1009,MusicAffectPsychophysiology2019,3.0.5,59.61282140162784,
To what extent did the music make you feel ,SCARED,30MonoWAV/30MonoH3.wav,2,2,1,7,,,,,0,13,13,6,0,2,2,11,,,,,,,,,1,0.9195553800000198,,,114,001,2019_Sep_19_1009,MusicAffectPsychophysiology2019,3.0.5,59.61282140162784,
To what extent did the music make you feel ,GUILTY,30MonoWAV/30MonoH3.wav,2,2,1,7,,,,,0,13,13,6,0,3,3,5,,,,,,,,,1,0.7342452830000639,,,114,001,2019_Sep_19_1009,MusicAffectPsychophysiology2019,3.0.5,59.61282140162784,
To what extent did the music make you feel ,ANGRY,30MonoWAV/30MonoH3.wav,2,2,1,7,,,,,0,13,13,6,0,4,4,2,,,,,,,,,1,0.5186736630000723,,,114,001,2019_Sep_19_1009,MusicAffectPsychophysiology2019,3.0.5,59.61282140162784,
To what extent did the music make you feel ,ANXIOUS ,30MonoWAV/30MonoH3.wav,2,2,1,7,,,,,0,13,13,6,0,5,5,1,,,,,,,,,1,0.8689674160000322,,,114,001,2019_Sep_19_1009,MusicAffectPsychophysiology2019,3.0.5,59.61282140162784,
To what extent did the music make you feel ,ALERT,30MonoWAV/30MonoH3.wav,2,2,1,7,,,,,0,13,13,6,0,6,6,8,,,,,,,,,4,2.999832880999975,,,114,001,2019_Sep_19_1009,MusicAffectPsychophysiology2019,3.0.5,59.61282140162784,
To what extent did the music make you feel ,EXCITED,30MonoWAV/30MonoH3.wav,2,2,1,7,,,,,0,13,13,6,0,7,7,7,,,,,,,,,4,0.8354979260000164,,,114,001,2019_Sep_19_1009,MusicAffectPsychophysiology2019,3.0.5,59.61282140162784,
To what extent did the music make you feel ,ASHAMED,30MonoWAV/30MonoH3.wav,2,2,1,7,,,,,0,13,13,6,0,8,8,4,,,,,,,,,1,1.569464331999825,,,114,001,2019_Sep_19_1009,MusicAffectPsychophysiology2019,3.0.5,59.61282140162784,
To what extent did the music make you feel ,ACTIVE,30MonoWAV/30MonoH3.wav,2,2,1,7,,,,,0,13,13,6,0,9,9,9,,,,,,,,,3,1.0687027799999669,,,114,001,2019_Sep_19_1009,MusicAffectPsychophysiology2019,3.0.5,59.61282140162784,
To what extent did the music make you feel ,FRUSTRATED,30MonoWAV/30MonoH3.wav,2,2,1,7,,,,,0,13,13,6,0,10,10,3,,,,,,,,,1,1.1191193510001085,,,114,001,2019_Sep_19_1009,MusicAffectPsychophysiology2019,3.0.5,59.61282140162784,
To what extent did the music make you feel ,TENDER,30MonoWAV/30MonoH3.wav,2,2,1,7,,,,,0,13,13,6,0,11,11,10,,,,,,,,,2,1.3189767890000894,,,114,001,2019_Sep_19_1009,MusicAffectPsychophysiology2019,3.0.5,59.61282140162784,
,,30MonoWAV/30MonoH3.wav,2,2,1,7,,,,,0,13,13,6,,,,,,,,,,,,,,,,,114,001,2019_Sep_19_1009,MusicAffectPsychophysiology2019,3.0.5,59.61282140162784,
To what extent did the music make you feel ,ANXIOUS ,30MonoWAV/30MonoF1.wav,1,2,2,1,,,,,0,14,14,0,0,0,0,1,,,3,4.452171892000024,2,1.8865864280001006,2,2.9828950520000035,4,1.7831002589998661,,,114,001,2019_Sep_19_1009,MusicAffectPsychophysiology2019,3.0.5,59.61282140162784,
To what extent did the music make you feel ,GUILTY,30MonoWAV/30MonoF1.wav,1,2,2,1,,,,,0,14,14,0,0,1,1,5,,,,,,,,,1,1.669572288999916,,,114,001,2019_Sep_19_1009,MusicAffectPsychophysiology2019,3.0.5,59.61282140162784,
To what extent did the music make you feel ,TENDER,30MonoWAV/30MonoF1.wav,1,2,2,1,,,,,0,14,14,0,0,2,2,10,,,,,,,,,1,1.3352881700000125,,,114,001,2019_Sep_19_1009,MusicAffectPsychophysiology2019,3.0.5,59.61282140162784,
To what extent did the music make you feel ,FRUSTRATED,30MonoWAV/30MonoF1.wav,1,2,2,1,,,,,0,14,14,0,0,3,3,3,,,,,,,,,2,1.1854628950000006,,,114,001,2019_Sep_19_1009,MusicAffectPsychophysiology2019,3.0.5,59.61282140162784,
To what extent did the music make you feel ,SAD,30MonoWAV/30MonoF1.wav,1,2,2,1,,,,,0,14,14,0,0,4,4,0,,,,,,,,,3,2.235697987999856,,,114,001,2019_Sep_19_1009,MusicAffectPsychophysiology2019,3.0.5,59.61282140162784,
To what extent did the music make you feel ,ALERT,30MonoWAV/30MonoF1.wav,1,2,2,1,,,,,0,14,14,0,0,5,5,8,,,,,,,,,4,1.6833649409998088,,,114,001,2019_Sep_19_1009,MusicAffectPsychophysiology2019,3.0.5,59.61282140162784,
To what extent did the music make you feel ,ANGRY,30MonoWAV/30MonoF1.wav,1,2,2,1,,,,,0,14,14,0,0,6,6,2,,,,,,,,,2,1.6858436840000195,,,114,001,2019_Sep_19_1009,MusicAffectPsychophysiology2019,3.0.5,59.61282140162784,
To what extent did the music make you feel ,ACTIVE,30MonoWAV/30MonoF1.wav,1,2,2,1,,,,,0,14,14,0,0,7,7,9,,,,,,,,,2,1.3857829179999044,,,114,001,2019_Sep_19_1009,MusicAffectPsychophysiology2019,3.0.5,59.61282140162784,
To what extent did the music make you feel ,SCARED,30MonoWAV/30MonoF1.wav,1,2,2,1,,,,,0,14,14,0,0,8,8,11,,,,,,,,,4,1.36811917,,,114,001,2019_Sep_19_1009,MusicAffectPsychophysiology2019,3.0.5,59.61282140162784,
To what extent did the music make you feel ,HAPPY,30MonoWAV/30MonoF1.wav,1,2,2,1,,,,,0,14,14,0,0,9,9,6,,,,,,,,,1,1.40277284900003,,,114,001,2019_Sep_19_1009,MusicAffectPsychophysiology2019,3.0.5,59.61282140162784,
To what extent did the music make you feel ,ASHAMED,30MonoWAV/30MonoF1.wav,1,2,2,1,,,,,0,14,14,0,0,10,10,4,,,,,,,,,2,1.019536976999916,,,114,001,2019_Sep_19_1009,MusicAffectPsychophysiology2019,3.0.5,59.61282140162784,
To what extent did the music make you feel ,EXCITED,30MonoWAV/30MonoF1.wav,1,2,2,1,,,,,0,14,14,0,0,11,11,7,,,,,,,,,1,1.185773693000101,,,114,001,2019_Sep_19_1009,MusicAffectPsychophysiology2019,3.0.5,59.61282140162784,
,,30MonoWAV/30MonoF1.wav,1,2,2,1,,,,,0,14,14,0,,,,,,,,,,,,,,,,,114,001,2019_Sep_19_1009,MusicAffectPsychophysiology2019,3.0.5,59.61282140162784,
To what extent did the music make you feel ,ANGRY,30MonoWAV/30MonoF2.wav,1,2,2,2,,,,,0,15,15,1,0,0,0,2,,,3,5.368905809000125,2,2.3351903919999586,2,1.5029837790000329,1,3.2575719589999608,,,114,001,2019_Sep_19_1009,MusicAffectPsychophysiology2019,3.0.5,59.61282140162784,
To what extent did the music make you feel ,SCARED,30MonoWAV/30MonoF2.wav,1,2,2,2,,,,,0,15,15,1,0,1,1,11,,,,,,,,,5,1.9003979079998317,,,114,001,2019_Sep_19_1009,MusicAffectPsychophysiology2019,3.0.5,59.61282140162784,
To what extent did the music make you feel ,EXCITED,30MonoWAV/30MonoF2.wav,1,2,2,2,,,,,0,15,15,1,0,2,2,7,,,,,,,,,2,1.5687711500002024,,,114,001,2019_Sep_19_1009,MusicAffectPsychophysiology2019,3.0.5,59.61282140162784,
To what extent did the music make you feel ,ASHAMED,30MonoWAV/30MonoF2.wav,1,2,2,2,,,,,0,15,15,1,0,3,3,4,,,,,,,,,1,1.519055680999827,,,114,001,2019_Sep_19_1009,MusicAffectPsychophysiology2019,3.0.5,59.61282140162784,
To what extent did the music make you feel ,ACTIVE,30MonoWAV/30MonoF2.wav,1,2,2,2,,,,,0,15,15,1,0,4,4,9,,,,,,,,,2,1.4009473080000134,,,114,001,2019_Sep_19_1009,MusicAffectPsychophysiology2019,3.0.5,59.61282140162784,
To what extent did the music make you feel ,HAPPY,30MonoWAV/30MonoF2.wav,1,2,2,2,,,,,0,15,15,1,0,5,5,6,,,,,,,,,1,0.9521009199997934,,,114,001,2019_Sep_19_1009,MusicAffectPsychophysiology2019,3.0.5,59.61282140162784,
To what extent did the music make you feel ,GUILTY,30MonoWAV/30MonoF2.wav,1,2,2,2,,,,,0,15,15,1,0,6,6,5,,,,,,,,,1,1.167632236999907,,,114,001,2019_Sep_19_1009,MusicAffectPsychophysiology2019,3.0.5,59.61282140162784,
To what extent did the music make you feel ,ALERT,30MonoWAV/30MonoF2.wav,1,2,2,2,,,,,0,15,15,1,0,7,7,8,,,,,,,,,5,2.218228702000033,,,114,001,2019_Sep_19_1009,MusicAffectPsychophysiology2019,3.0.5,59.61282140162784,
To what extent did the music make you feel ,TENDER,30MonoWAV/30MonoF2.wav,1,2,2,2,,,,,0,15,15,1,0,8,8,10,,,,,,,,,1,1.1514828780000244,,,114,001,2019_Sep_19_1009,MusicAffectPsychophysiology2019,3.0.5,59.61282140162784,
To what extent did the music make you feel ,SAD,30MonoWAV/30MonoF2.wav,1,2,2,2,,,,,0,15,15,1,0,9,9,0,,,,,,,,,2,1.3331345349999992,,,114,001,2019_Sep_19_1009,MusicAffectPsychophysiology2019,3.0.5,59.61282140162784,
To what extent did the music make you feel ,ANXIOUS ,30MonoWAV/30MonoF2.wav,1,2,2,2,,,,,0,15,15,1,0,10,10,1,,,,,,,,,5,1.3026123810000172,,,114,001,2019_Sep_19_1009,MusicAffectPsychophysiology2019,3.0.5,59.61282140162784,
To what extent did the music make you feel ,FRUSTRATED,30MonoWAV/30MonoF2.wav,1,2,2,2,,,,,0,15,15,1,0,11,11,3,,,,,,,,,2,1.402461133000088,,,114,001,2019_Sep_19_1009,MusicAffectPsychophysiology2019,3.0.5,59.61282140162784,
,,30MonoWAV/30MonoF2.wav,1,2,2,2,,,,,0,15,15,1,,,,,,,,,,,,,,,,,114,001,2019_Sep_19_1009,MusicAffectPsychophysiology2019,3.0.5,59.61282140162784,
To what extent did the music make you feel ,GUILTY,30MonoWAV/30MonoS2.wav,1,1,3,10,,,,,1,0,16,9,0,0,0,5,,,1,2.7182962319998296,1,1.8188407489999463,2,2.5523570640000344,3,3.459215021999853,,,114,001,2019_Sep_19_1009,MusicAffectPsychophysiology2019,3.0.5,59.61282140162784,
To what extent did the music make you feel ,TENDER,30MonoWAV/30MonoS2.wav,1,1,3,10,,,,,1,0,16,9,0,1,1,10,,,,,,,,,1,1.4697941959998388,,,114,001,2019_Sep_19_1009,MusicAffectPsychophysiology2019,3.0.5,59.61282140162784,
To what extent did the music make you feel ,ANGRY,30MonoWAV/30MonoS2.wav,1,1,3,10,,,,,1,0,16,9,0,2,2,2,,,,,,,,,1,1.6354984390000027,,,114,001,2019_Sep_19_1009,MusicAffectPsychophysiology2019,3.0.5,59.61282140162784,
To what extent did the music make you feel ,FRUSTRATED,30MonoWAV/30MonoS2.wav,1,1,3,10,,,,,1,0,16,9,0,3,3,3,,,,,,,,,1,1.4032099339999604,,,114,001,2019_Sep_19_1009,MusicAffectPsychophysiology2019,3.0.5,59.61282140162784,
To what extent did the music make you feel ,ASHAMED,30MonoWAV/30MonoS2.wav,1,1,3,10,,,,,1,0,16,9,0,4,4,4,,,,,,,,,3,2.3016119369999615,,,114,001,2019_Sep_19_1009,MusicAffectPsychophysiology2019,3.0.5,59.61282140162784,
To what extent did the music make you feel ,ACTIVE,30MonoWAV/30MonoS2.wav,1,1,3,10,,,,,1,0,16,9,0,5,5,9,,,,,,,,,1,1.235979541000006,,,114,001,2019_Sep_19_1009,MusicAffectPsychophysiology2019,3.0.5,59.61282140162784,
To what extent did the music make you feel ,SAD,30MonoWAV/30MonoS2.wav,1,1,3,10,,,,,1,0,16,9,0,6,6,0,,,,,,,,,5,1.6358188859999245,,,114,001,2019_Sep_19_1009,MusicAffectPsychophysiology2019,3.0.5,59.61282140162784,
To what extent did the music make you feel ,HAPPY,30MonoWAV/30MonoS2.wav,1,1,3,10,,,,,1,0,16,9,0,7,7,6,,,,,,,,,1,1.102506164000033,,,114,001,2019_Sep_19_1009,MusicAffectPsychophysiology2019,3.0.5,59.61282140162784,
To what extent did the music make you feel ,ALERT,30MonoWAV/30MonoS2.wav,1,1,3,10,,,,,1,0,16,9,0,8,8,8,,,,,,,,,1,1.085013060999927,,,114,001,2019_Sep_19_1009,MusicAffectPsychophysiology2019,3.0.5,59.61282140162784,
To what extent did the music make you feel ,SCARED,30MonoWAV/30MonoS2.wav,1,1,3,10,,,,,1,0,16,9,0,9,9,11,,,,,,,,,1,1.1695168770002056,,,114,001,2019_Sep_19_1009,MusicAffectPsychophysiology2019,3.0.5,59.61282140162784,
To what extent did the music make you feel ,EXCITED,30MonoWAV/30MonoS2.wav,1,1,3,10,,,,,1,0,16,9,0,10,10,7,,,,,,,,,1,1.0191426940000383,,,114,001,2019_Sep_19_1009,MusicAffectPsychophysiology2019,3.0.5,59.61282140162784,
To what extent did the music make you feel ,ANXIOUS ,30MonoWAV/30MonoS2.wav,1,1,3,10,,,,,1,0,16,9,0,11,11,1,,,,,,,,,5,1.2190338420000444,,,114,001,2019_Sep_19_1009,MusicAffectPsychophysiology2019,3.0.5,59.61282140162784,
,,30MonoWAV/30MonoS2.wav,1,1,3,10,,,,,1,0,16,9,,,,,,,,,,,,,,,,,114,001,2019_Sep_19_1009,MusicAffectPsychophysiology2019,3.0.5,59.61282140162784,
To what extent did the music make you feel ,FRUSTRATED,30MonoWAV/30MonoH1.wav,2,2,1,5,,,,,1,1,17,4,0,0,0,3,,,4,3.752351315000169,4,1.1858076910000364,4,1.968264586000032,1,1.2113077169999542,,,114,001,2019_Sep_19_1009,MusicAffectPsychophysiology2019,3.0.5,59.61282140162784,
To what extent did the music make you feel ,SCARED,30MonoWAV/30MonoH1.wav,2,2,1,5,,,,,1,1,17,4,0,1,1,11,,,,,,,,,1,0.835250902000098,,,114,001,2019_Sep_19_1009,MusicAffectPsychophysiology2019,3.0.5,59.61282140162784,
To what extent did the music make you feel ,GUILTY,30MonoWAV/30MonoH1.wav,2,2,1,5,,,,,1,1,17,4,0,2,2,5,,,,,,,,,1,0.9198512479999863,,,114,001,2019_Sep_19_1009,MusicAffectPsychophysiology2019,3.0.5,59.61282140162784,
To what extent did the music make you feel ,ANXIOUS ,30MonoWAV/30MonoH1.wav,2,2,1,5,,,,,1,1,17,4,0,3,3,1,,,,,,,,,1,0.9688420649999898,,,114,001,2019_Sep_19_1009,MusicAffectPsychophysiology2019,3.0.5,59.61282140162784,
To what extent did the music make you feel ,ACTIVE,30MonoWAV/30MonoH1.wav,2,2,1,5,,,,,1,1,17,4,0,4,4,9,,,,,,,,,3,1.2694552499999645,,,114,001,2019_Sep_19_1009,MusicAffectPsychophysiology2019,3.0.5,59.61282140162784,
To what extent did the music make you feel ,ANGRY,30MonoWAV/30MonoH1.wav,2,2,1,5,,,,,1,1,17,4,0,5,5,2,,,,,,,,,1,0.9025931020000826,,,114,001,2019_Sep_19_1009,MusicAffectPsychophysiology2019,3.0.5,59.61282140162784,
To what extent did the music make you feel ,EXCITED,30MonoWAV/30MonoH1.wav,2,2,1,5,,,,,1,1,17,4,0,6,6,7,,,,,,,,,3,2.3860839139999825,,,114,001,2019_Sep_19_1009,MusicAffectPsychophysiology2019,3.0.5,59.61282140162784,
To what extent did the music make you feel ,SAD,30MonoWAV/30MonoH1.wav,2,2,1,5,,,,,1,1,17,4,0,7,7,0,,,,,,,,,1,0.9692372050001268,,,114,001,2019_Sep_19_1009,MusicAffectPsychophysiology2019,3.0.5,59.61282140162784,
To what extent did the music make you feel ,HAPPY,30MonoWAV/30MonoH1.wav,2,2,1,5,,,,,1,1,17,4,0,8,8,6,,,,,,,,,4,1.0517327019999811,,,114,001,2019_Sep_19_1009,MusicAffectPsychophysiology2019,3.0.5,59.61282140162784,
To what extent did the music make you feel ,TENDER,30MonoWAV/30MonoH1.wav,2,2,1,5,,,,,1,1,17,4,0,9,9,10,,,,,,,,,2,1.0022113159998298,,,114,001,2019_Sep_19_1009,MusicAffectPsychophysiology2019,3.0.5,59.61282140162784,
To what extent did the music make you feel ,ASHAMED,30MonoWAV/30MonoH1.wav,2,2,1,5,,,,,1,1,17,4,0,10,10,4,,,,,,,,,1,0.9186538040000869,,,114,001,2019_Sep_19_1009,MusicAffectPsychophysiology2019,3.0.5,59.61282140162784,
To what extent did the music make you feel ,ALERT,30MonoWAV/30MonoH1.wav,2,2,1,5,,,,,1,1,17,4,0,11,11,8,,,,,,,,,2,1.369311272999994,,,114,001,2019_Sep_19_1009,MusicAffectPsychophysiology2019,3.0.5,59.61282140162784,
,,30MonoWAV/30MonoH1.wav,2,2,1,5,,,,,1,1,17,4,,,,,,,,,,,,,,,,,114,001,2019_Sep_19_1009,MusicAffectPsychophysiology2019,3.0.5,59.61282140162784,
To what extent did the music make you feel ,EXCITED,30MonoWAV/30MonoF4.wav,1,2,2,4,,,,,1,2,18,3,0,0,0,7,,,3,2.4846619259999443,3,2.7364975299999514,4,2.4330420040000718,3,1.9463232430000517,,,114,001,2019_Sep_19_1009,MusicAffectPsychophysiology2019,3.0.5,59.61282140162784,
To what extent did the music make you feel ,HAPPY,30MonoWAV/30MonoF4.wav,1,2,2,4,,,,,1,2,18,3,0,1,1,6,,,,,,,,,2,1.785814936000179,,,114,001,2019_Sep_19_1009,MusicAffectPsychophysiology2019,3.0.5,59.61282140162784,
To what extent did the music make you feel ,TENDER,30MonoWAV/30MonoF4.wav,1,2,2,4,,,,,1,2,18,3,0,2,2,10,,,,,,,,,1,1.185915211000065,,,114,001,2019_Sep_19_1009,MusicAffectPsychophysiology2019,3.0.5,59.61282140162784,
To what extent did the music make you feel ,SAD,30MonoWAV/30MonoF4.wav,1,2,2,4,,,,,1,2,18,3,0,3,3,0,,,,,,,,,1,0.9681052099999761,,,114,001,2019_Sep_19_1009,MusicAffectPsychophysiology2019,3.0.5,59.61282140162784,
To what extent did the music make you feel ,ALERT,30MonoWAV/30MonoF4.wav,1,2,2,4,,,,,1,2,18,3,0,4,4,8,,,,,,,,,4,1.769585657999869,,,114,001,2019_Sep_19_1009,MusicAffectPsychophysiology2019,3.0.5,59.61282140162784,
To what extent did the music make you feel ,SCARED,30MonoWAV/30MonoF4.wav,1,2,2,4,,,,,1,2,18,3,0,5,5,11,,,,,,,,,2,1.682511095000109,,,114,001,2019_Sep_19_1009,MusicAffectPsychophysiology2019,3.0.5,59.61282140162784,
To what extent did the music make you feel ,ACTIVE,30MonoWAV/30MonoF4.wav,1,2,2,4,,,,,1,2,18,3,0,6,6,9,,,,,,,,,3,1.4178253370000675,,,114,001,2019_Sep_19_1009,MusicAffectPsychophysiology2019,3.0.5,59.61282140162784,
To what extent did the music make you feel ,FRUSTRATED,30MonoWAV/30MonoF4.wav,1,2,2,4,,,,,1,2,18,3,0,7,7,3,,,,,,,,,2,1.5521912469998824,,,114,001,2019_Sep_19_1009,MusicAffectPsychophysiology2019,3.0.5,59.61282140162784,
To what extent did the music make you feel ,ANXIOUS ,30MonoWAV/30MonoF4.wav,1,2,2,4,,,,,1,2,18,3,0,8,8,1,,,,,,,,,2,1.7857461270000385,,,114,001,2019_Sep_19_1009,MusicAffectPsychophysiology2019,3.0.5,59.61282140162784,
To what extent did the music make you feel ,ASHAMED,30MonoWAV/30MonoF4.wav,1,2,2,4,,,,,1,2,18,3,0,9,9,4,,,,,,,,,1,0.9838728459999402,,,114,001,2019_Sep_19_1009,MusicAffectPsychophysiology2019,3.0.5,59.61282140162784,
To what extent did the music make you feel ,ANGRY,30MonoWAV/30MonoF4.wav,1,2,2,4,,,,,1,2,18,3,0,10,10,2,,,,,,,,,1,1.0690214730000207,,,114,001,2019_Sep_19_1009,MusicAffectPsychophysiology2019,3.0.5,59.61282140162784,
To what extent did the music make you feel ,GUILTY,30MonoWAV/30MonoF4.wav,1,2,2,4,,,,,1,2,18,3,0,11,11,5,,,,,,,,,1,0.9854221200000666,,,114,001,2019_Sep_19_1009,MusicAffectPsychophysiology2019,3.0.5,59.61282140162784,
,,30MonoWAV/30MonoF4.wav,1,2,2,4,,,,,1,2,18,3,,,,,,,,,,,,,,,,,114,001,2019_Sep_19_1009,MusicAffectPsychophysiology2019,3.0.5,59.61282140162784,
To what extent did the music make you feel ,FRUSTRATED,30MonoWAV/30MonoS1.wav,1,1,3,9,,,,,1,3,19,8,0,0,0,3,,,1,3.451886166999884,2,1.5694501099999343,2,1.767495672999985,2,0.6523394539999572,,,114,001,2019_Sep_19_1009,MusicAffectPsychophysiology2019,3.0.5,59.61282140162784,
To what extent did the music make you feel ,ALERT,30MonoWAV/30MonoS1.wav,1,1,3,9,,,,,1,3,19,8,0,1,1,8,,,,,,,,,1,1.6356203119999009,,,114,001,2019_Sep_19_1009,MusicAffectPsychophysiology2019,3.0.5,59.61282140162784,
To what extent did the music make you feel ,SCARED,30MonoWAV/30MonoS1.wav,1,1,3,9,,,,,1,3,19,8,0,2,2,11,,,,,,,,,1,2.9012578709998706,,,114,001,2019_Sep_19_1009,MusicAffectPsychophysiology2019,3.0.5,59.61282140162784,
To what extent did the music make you feel ,GUILTY,30MonoWAV/30MonoS1.wav,1,1,3,9,,,,,1,3,19,8,0,3,3,5,,,,,,,,,2,1.0859119669999018,,,114,001,2019_Sep_19_1009,MusicAffectPsychophysiology2019,3.0.5,59.61282140162784,
To what extent did the music make you feel ,SAD,30MonoWAV/30MonoS1.wav,1,1,3,9,,,,,1,3,19,8,0,4,4,0,,,,,,,,,3,1.4670973649999723,,,114,001,2019_Sep_19_1009,MusicAffectPsychophysiology2019,3.0.5,59.61282140162784,
To what extent did the music make you feel ,EXCITED,30MonoWAV/30MonoS1.wav,1,1,3,9,,,,,1,3,19,8,0,5,5,7,,,,,,,,,1,1.2510197710000739,,,114,001,2019_Sep_19_1009,MusicAffectPsychophysiology2019,3.0.5,59.61282140162784,
To what extent did the music make you feel ,ACTIVE,30MonoWAV/30MonoS1.wav,1,1,3,9,,,,,1,3,19,8,0,6,6,9,,,,,,,,,1,1.1164199699999244,,,114,001,2019_Sep_19_1009,MusicAffectPsychophysiology2019,3.0.5,59.61282140162784,
To what extent did the music make you feel ,ASHAMED,30MonoWAV/30MonoS1.wav,1,1,3,9,,,,,1,3,19,8,0,7,7,4,,,,,,,,,1,1.184214862999852,,,114,001,2019_Sep_19_1009,MusicAffectPsychophysiology2019,3.0.5,59.61282140162784,
To what extent did the music make you feel ,HAPPY,30MonoWAV/30MonoS1.wav,1,1,3,9,,,,,1,3,19,8,0,8,8,6,,,,,,,,,1,0.9695334429998184,,,114,001,2019_Sep_19_1009,MusicAffectPsychophysiology2019,3.0.5,59.61282140162784,
To what extent did the music make you feel ,ANGRY,30MonoWAV/30MonoS1.wav,1,1,3,9,,,,,1,3,19,8,0,9,9,2,,,,,,,,,1,1.0687056059998667,,,114,001,2019_Sep_19_1009,MusicAffectPsychophysiology2019,3.0.5,59.61282140162784,
To what extent did the music make you feel ,TENDER,30MonoWAV/30MonoS1.wav,1,1,3,9,,,,,1,3,19,8,0,10,10,10,,,,,,,,,2,1.3524840109998877,,,114,001,2019_Sep_19_1009,MusicAffectPsychophysiology2019,3.0.5,59.61282140162784,
To what extent did the music make you feel ,ANXIOUS ,30MonoWAV/30MonoS1.wav,1,1,3,9,,,,,1,3,19,8,0,11,11,1,,,,,,,,,3,1.519375009999976,,,114,001,2019_Sep_19_1009,MusicAffectPsychophysiology2019,3.0.5,59.61282140162784,
,,30MonoWAV/30MonoS1.wav,1,1,3,9,,,,,1,3,19,8,,,,,,,,,,,,,,,,,114,001,2019_Sep_19_1009,MusicAffectPsychophysiology2019,3.0.5,59.61282140162784,
To what extent did the music make you feel ,ANGRY,30MonoWAV/30MonoH3.wav,2,2,1,7,,,,,1,4,20,6,0,0,0,2,,,4,2.929389852999975,4,1.490995797000096,4,1.0355158949998895,1,1.2351651169999514,,,114,001,2019_Sep_19_1009,MusicAffectPsychophysiology2019,3.0.5,59.61282140162784,
To what extent did the music make you feel ,ANXIOUS ,30MonoWAV/30MonoH3.wav,2,2,1,7,,,,,1,4,20,6,0,1,1,1,,,,,,,,,1,1.0021904870000071,,,114,001,2019_Sep_19_1009,MusicAffectPsychophysiology2019,3.0.5,59.61282140162784,
To what extent did the music make you feel ,ALERT,30MonoWAV/30MonoH3.wav,2,2,1,7,,,,,1,4,20,6,0,2,2,8,,,,,,,,,4,1.6013708919999772,,,114,001,2019_Sep_19_1009,MusicAffectPsychophysiology2019,3.0.5,59.61282140162784,
To what extent did the music make you feel ,SAD,30MonoWAV/30MonoH3.wav,2,2,1,7,,,,,1,4,20,6,0,3,3,0,,,,,,,,,1,1.1168052929999703,,,114,001,2019_Sep_19_1009,MusicAffectPsychophysiology2019,3.0.5,59.61282140162784,
To what extent did the music make you feel ,HAPPY,30MonoWAV/30MonoH3.wav,2,2,1,7,,,,,1,4,20,6,0,4,4,6,,,,,,,,,5,1.2688054840000405,,,114,001,2019_Sep_19_1009,MusicAffectPsychophysiology2019,3.0.5,59.61282140162784,
To what extent did the music make you feel ,SCARED,30MonoWAV/30MonoH3.wav,2,2,1,7,,,,,1,4,20,6,0,5,5,11,,,,,,,,,1,1.152784327999825,,,114,001,2019_Sep_19_1009,MusicAffectPsychophysiology2019,3.0.5,59.61282140162784,
To what extent did the music make you feel ,ASHAMED,30MonoWAV/30MonoH3.wav,2,2,1,7,,,,,1,4,20,6,0,6,6,4,,,,,,,,,1,1.1188036460000603,,,114,001,2019_Sep_19_1009,MusicAffectPsychophysiology2019,3.0.5,59.61282140162784,
To what extent did the music make you feel ,FRUSTRATED,30MonoWAV/30MonoH3.wav,2,2,1,7,,,,,1,4,20,6,0,7,7,3,,,,,,,,,1,0.9696747909999885,,,114,001,2019_Sep_19_1009,MusicAffectPsychophysiology2019,3.0.5,59.61282140162784,
To what extent did the music make you feel ,ACTIVE,30MonoWAV/30MonoH3.wav,2,2,1,7,,,,,1,4,20,6,0,8,8,9,,,,,,,,,4,1.4364871220000168,,,114,001,2019_Sep_19_1009,MusicAffectPsychophysiology2019,3.0.5,59.61282140162784,
To what extent did the music make you feel ,TENDER,30MonoWAV/30MonoH3.wav,2,2,1,7,,,,,1,4,20,6,0,9,9,10,,,,,,,,,2,1.0690351569999166,,,114,001,2019_Sep_19_1009,MusicAffectPsychophysiology2019,3.0.5,59.61282140162784,
To what extent did the music make you feel ,EXCITED,30MonoWAV/30MonoH3.wav,2,2,1,7,,,,,1,4,20,6,0,10,10,7,,,,,,,,,4,1.3184724510001615,,,114,001,2019_Sep_19_1009,MusicAffectPsychophysiology2019,3.0.5,59.61282140162784,
To what extent did the music make you feel ,GUILTY,30MonoWAV/30MonoH3.wav,2,2,1,7,,,,,1,4,20,6,0,11,11,5,,,,,,,,,1,1.1358229339998616,,,114,001,2019_Sep_19_1009,MusicAffectPsychophysiology2019,3.0.5,59.61282140162784,
,,30MonoWAV/30MonoH3.wav,2,2,1,7,,,,,1,4,20,6,,,,,,,,,,,,,,,,,114,001,2019_Sep_19_1009,MusicAffectPsychophysiology2019,3.0.5,59.61282140162784,
To what extent did the music make you feel ,HAPPY,30MonoWAV/30MonoT1.wav,2,1,4,13,,,,,1,5,21,12,0,0,0,6,,,2,6.269240327000034,3,2.3528823320000356,4,2.3024916659999235,4,1.5687430660000246,,,114,001,2019_Sep_19_1009,MusicAffectPsychophysiology2019,3.0.5,59.61282140162784,
To what extent did the music make you feel ,EXCITED,30MonoWAV/30MonoT1.wav,2,1,4,13,,,,,1,5,21,12,0,1,1,7,,,,,,,,,3,1.6517839319999439,,,114,001,2019_Sep_19_1009,MusicAffectPsychophysiology2019,3.0.5,59.61282140162784,
To what extent did the music make you feel ,GUILTY,30MonoWAV/30MonoT1.wav,2,1,4,13,,,,,1,5,21,12,0,2,2,5,,,,,,,,,2,1.685510289999911,,,114,001,2019_Sep_19_1009,MusicAffectPsychophysiology2019,3.0.5,59.61282140162784,
To what extent did the music make you feel ,ASHAMED,30MonoWAV/30MonoT1.wav,2,1,4,13,,,,,1,5,21,12,0,3,3,4,,,,,,,,,1,1.269397700999889,,,114,001,2019_Sep_19_1009,MusicAffectPsychophysiology2019,3.0.5,59.61282140162784,
To what extent did the music make you feel ,FRUSTRATED,30MonoWAV/30MonoT1.wav,2,1,4,13,,,,,1,5,21,12,0,4,4,3,,,,,,,,,1,0.8859331480000492,,,114,001,2019_Sep_19_1009,MusicAffectPsychophysiology2019,3.0.5,59.61282140162784,
To what extent did the music make you feel ,ANXIOUS ,30MonoWAV/30MonoT1.wav,2,1,4,13,,,,,1,5,21,12,0,5,5,1,,,,,,,,,1,1.0841775979999966,,,114,001,2019_Sep_19_1009,MusicAffectPsychophysiology2019,3.0.5,59.61282140162784,
To what extent did the music make you feel ,SAD,30MonoWAV/30MonoT1.wav,2,1,4,13,,,,,1,5,21,12,0,6,6,0,,,,,,,,,1,0.8191666600000644,,,114,001,2019_Sep_19_1009,MusicAffectPsychophysiology2019,3.0.5,59.61282140162784,
To what extent did the music make you feel ,ALERT,30MonoWAV/30MonoT1.wav,2,1,4,13,,,,,1,5,21,12,0,7,7,8,,,,,,,,,2,1.469448186999898,,,114,001,2019_Sep_19_1009,MusicAffectPsychophysiology2019,3.0.5,59.61282140162784,
To what extent did the music make you feel ,SCARED,30MonoWAV/30MonoT1.wav,2,1,4,13,,,,,1,5,21,12,0,8,8,11,,,,,,,,,1,0.7023372220000965,,,114,001,2019_Sep_19_1009,MusicAffectPsychophysiology2019,3.0.5,59.61282140162784,
To what extent did the music make you feel ,ACTIVE,30MonoWAV/30MonoT1.wav,2,1,4,13,,,,,1,5,21,12,0,9,9,9,,,,,,,,,2,0.819597172000158,,,114,001,2019_Sep_19_1009,MusicAffectPsychophysiology2019,3.0.5,59.61282140162784,
To what extent did the music make you feel ,TENDER,30MonoWAV/30MonoT1.wav,2,1,4,13,,,,,1,5,21,12,0,10,10,10,,,,,,,,,4,2.9362991870000315,,,114,001,2019_Sep_19_1009,MusicAffectPsychophysiology2019,3.0.5,59.61282140162784,
To what extent did the music make you feel ,ANGRY,30MonoWAV/30MonoT1.wav,2,1,4,13,,,,,1,5,21,12,0,11,11,2,,,,,,,,,1,1.00185022200003,,,114,001,2019_Sep_19_1009,MusicAffectPsychophysiology2019,3.0.5,59.61282140162784,
,,30MonoWAV/30MonoT1.wav,2,1,4,13,,,,,1,5,21,12,,,,,,,,,,,,,,,,,114,001,2019_Sep_19_1009,MusicAffectPsychophysiology2019,3.0.5,59.61282140162784,
To what extent did the music make you feel ,SAD,30MonoWAV/30MonoF2.wav,1,2,2,2,,,,,1,6,22,1,0,0,0,0,,,3,3.768505778999952,1,3.133120700000063,2,2.069081983999922,1,3.3880235229999016,,,114,001,2019_Sep_19_1009,MusicAffectPsychophysiology2019,3.0.5,59.61282140162784,
To what extent did the music make you feel ,ASHAMED,30MonoWAV/30MonoF2.wav,1,2,2,2,,,,,1,6,22,1,0,1,1,4,,,,,,,,,1,0.9527477550000185,,,114,001,2019_Sep_19_1009,MusicAffectPsychophysiology2019,3.0.5,59.61282140162784,
To what extent did the music make you feel ,FRUSTRATED,30MonoWAV/30MonoF2.wav,1,2,2,2,,,,,1,6,22,1,0,2,2,3,,,,,,,,,2,1.5374054680000881,,,114,001,2019_Sep_19_1009,MusicAffectPsychophysiology2019,3.0.5,59.61282140162784,
To what extent did the music make you feel ,SCARED,30MonoWAV/30MonoF2.wav,1,2,2,2,,,,,1,6,22,1,0,3,3,11,,,,,,,,,5,1.7178670199998578,,,114,001,2019_Sep_19_1009,MusicAffectPsychophysiology2019,3.0.5,59.61282140162784,
To what extent did the music make you feel ,GUILTY,30MonoWAV/30MonoF2.wav,1,2,2,2,,,,,1,6,22,1,0,4,4,5,,,,,,,,,2,2.042780910999909,,,114,001,2019_Sep_19_1009,MusicAffectPsychophysiology2019,3.0.5,59.61282140162784,
To what extent did the music make you feel ,ANXIOUS ,30MonoWAV/30MonoF2.wav,1,2,2,2,,,,,1,6,22,1,0,5,5,1,,,,,,,,,5,1.529884850000144,,,114,001,2019_Sep_19_1009,MusicAffectPsychophysiology2019,3.0.5,59.61282140162784,
To what extent did the music make you feel ,EXCITED,30MonoWAV/30MonoF2.wav,1,2,2,2,,,,,1,6,22,1,0,6,6,7,,,,,,,,,1,2.201746028000116,,,114,001,2019_Sep_19_1009,MusicAffectPsychophysiology2019,3.0.5,59.61282140162784,
To what extent did the music make you feel ,ALERT,30MonoWAV/30MonoF2.wav,1,2,2,2,,,,,1,6,22,1,0,7,7,8,,,,,,,,,5,1.4691013780000048,,,114,001,2019_Sep_19_1009,MusicAffectPsychophysiology2019,3.0.5,59.61282140162784,
To what extent did the music make you feel ,ANGRY,30MonoWAV/30MonoF2.wav,1,2,2,2,,,,,1,6,22,1,0,8,8,2,,,,,,,,,2,2.3187066069999673,,,114,001,2019_Sep_19_1009,MusicAffectPsychophysiology2019,3.0.5,59.61282140162784,
To what extent did the music make you feel ,HAPPY,30MonoWAV/30MonoF2.wav,1,2,2,2,,,,,1,6,22,1,0,9,9,6,,,,,,,,,1,0.8855386359998647,,,114,001,2019_Sep_19_1009,MusicAffectPsychophysiology2019,3.0.5,59.61282140162784,
To what extent did the music make you feel ,TENDER,30MonoWAV/30MonoF2.wav,1,2,2,2,,,,,1,6,22,1,0,10,10,10,,,,,,,,,1,0.8200567219998902,,,114,001,2019_Sep_19_1009,MusicAffectPsychophysiology2019,3.0.5,59.61282140162784,
To what extent did the music make you feel ,ACTIVE,30MonoWAV/30MonoF2.wav,1,2,2,2,,,,,1,6,22,1,0,11,11,9,,,,,,,,,2,1.1184792760000164,,,114,001,2019_Sep_19_1009,MusicAffectPsychophysiology2019,3.0.5,59.61282140162784,
,,30MonoWAV/30MonoF2.wav,1,2,2,2,,,,,1,6,22,1,,,,,,,,,,,,,,,,,114,001,2019_Sep_19_1009,MusicAffectPsychophysiology2019,3.0.5,59.61282140162784,
To what extent did the music make you feel ,ANXIOUS ,30MonoWAV/30MonoH4.wav,2,2,1,8,,,,,1,7,23,7,0,0,0,1,,,5,2.851944488999834,5,1.1184135460000562,5,1.1520811870000216,1,1.20719902299993,,,114,001,2019_Sep_19_1009,MusicAffectPsychophysiology2019,3.0.5,59.61282140162784,
To what extent did the music make you feel ,SCARED,30MonoWAV/30MonoH4.wav,2,2,1,8,,,,,1,7,23,7,0,1,1,11,,,,,,,,,1,1.0177378040000349,,,114,001,2019_Sep_19_1009,MusicAffectPsychophysiology2019,3.0.5,59.61282140162784,
To what extent did the music make you feel ,EXCITED,30MonoWAV/30MonoH4.wav,2,2,1,8,,,,,1,7,23,7,0,2,2,7,,,,,,,,,5,1.2521356100000958,,,114,001,2019_Sep_19_1009,MusicAffectPsychophysiology2019,3.0.5,59.61282140162784,
To what extent did the music make you feel ,ALERT,30MonoWAV/30MonoH4.wav,2,2,1,8,,,,,1,7,23,7,0,3,3,8,,,,,,,,,3,1.686047902999917,,,114,001,2019_Sep_19_1009,MusicAffectPsychophysiology2019,3.0.5,59.61282140162784,
To what extent did the music make you feel ,SAD,30MonoWAV/30MonoH4.wav,2,2,1,8,,,,,1,7,23,7,0,4,4,0,,,,,,,,,1,1.0525000520001413,,,114,001,2019_Sep_19_1009,MusicAffectPsychophysiology2019,3.0.5,59.61282140162784,
To what extent did the music make you feel ,ACTIVE,30MonoWAV/30MonoH4.wav,2,2,1,8,,,,,1,7,23,7,0,5,5,9,,,,,,,,,4,1.1190386289999878,,,114,001,2019_Sep_19_1009,MusicAffectPsychophysiology2019,3.0.5,59.61282140162784,
To what extent did the music make you feel ,TENDER,30MonoWAV/30MonoH4.wav,2,2,1,8,,,,,1,7,23,7,0,6,6,10,,,,,,,,,3,1.1349819829999888,,,114,001,2019_Sep_19_1009,MusicAffectPsychophysiology2019,3.0.5,59.61282140162784,
To what extent did the music make you feel ,FRUSTRATED,30MonoWAV/30MonoH4.wav,2,2,1,8,,,,,1,7,23,7,0,7,7,3,,,,,,,,,1,0.9867907949999335,,,114,001,2019_Sep_19_1009,MusicAffectPsychophysiology2019,3.0.5,59.61282140162784,
To what extent did the music make you feel ,ASHAMED,30MonoWAV/30MonoH4.wav,2,2,1,8,,,,,1,7,23,7,0,8,8,4,,,,,,,,,1,1.1669787020000513,,,114,001,2019_Sep_19_1009,MusicAffectPsychophysiology2019,3.0.5,59.61282140162784,
To what extent did the music make you feel ,HAPPY,30MonoWAV/30MonoH4.wav,2,2,1,8,,,,,1,7,23,7,0,9,9,6,,,,,,,,,5,1.1031095509999886,,,114,001,2019_Sep_19_1009,MusicAffectPsychophysiology2019,3.0.5,59.61282140162784,
To what extent did the music make you feel ,GUILTY,30MonoWAV/30MonoH4.wav,2,2,1,8,,,,,1,7,23,7,0,10,10,5,,,,,,,,,1,1.0857701729999008,,,114,001,2019_Sep_19_1009,MusicAffectPsychophysiology2019,3.0.5,59.61282140162784,
To what extent did the music make you feel ,ANGRY,30MonoWAV/30MonoH4.wav,2,2,1,8,,,,,1,7,23,7,0,11,11,2,,,,,,,,,1,1.0869432770000458,,,114,001,2019_Sep_19_1009,MusicAffectPsychophysiology2019,3.0.5,59.61282140162784,
,,30MonoWAV/30MonoH4.wav,2,2,1,8,,,,,1,7,23,7,,,,,,,,,,,,,,,,,114,001,2019_Sep_19_1009,MusicAffectPsychophysiology2019,3.0.5,59.61282140162784,
To what extent did the music make you feel ,HAPPY,30MonoWAV/30MonoH2.wav,2,2,1,6,,,,,1,8,24,5,0,0,0,6,,,3,3.5358871559999443,4,2.403034379000019,3,1.7864363319999939,4,3.0951479140001084,,,114,001,2019_Sep_19_1009,MusicAffectPsychophysiology2019,3.0.5,59.61282140162784,
To what extent did the music make you feel ,EXCITED,30MonoWAV/30MonoH2.wav,2,2,1,6,,,,,1,8,24,5,0,1,1,7,,,,,,,,,4,1.2679915829999118,,,114,001,2019_Sep_19_1009,MusicAffectPsychophysiology2019,3.0.5,59.61282140162784,
To what extent did the music make you feel ,SAD,30MonoWAV/30MonoH2.wav,2,2,1,6,,,,,1,8,24,5,0,2,2,0,,,,,,,,,1,1.250765071999922,,,114,001,2019_Sep_19_1009,MusicAffectPsychophysiology2019,3.0.5,59.61282140162784,
To what extent did the music make you feel ,SCARED,30MonoWAV/30MonoH2.wav,2,2,1,6,,,,,1,8,24,5,0,3,3,11,,,,,,,,,1,0.5689399180000692,,,114,001,2019_Sep_19_1009,MusicAffectPsychophysiology2019,3.0.5,59.61282140162784,
To what extent did the music make you feel ,ANXIOUS ,30MonoWAV/30MonoH2.wav,2,2,1,6,,,,,1,8,24,5,0,4,4,1,,,,,,,,,1,0.7675781450000159,,,114,001,2019_Sep_19_1009,MusicAffectPsychophysiology2019,3.0.5,59.61282140162784,
To what extent did the music make you feel ,ALERT,30MonoWAV/30MonoH2.wav,2,2,1,6,,,,,1,8,24,5,0,5,5,8,,,,,,,,,3,1.5020136750001711,,,114,001,2019_Sep_19_1009,MusicAffectPsychophysiology2019,3.0.5,59.61282140162784,
To what extent did the music make you feel ,FRUSTRATED,30MonoWAV/30MonoH2.wav,2,2,1,6,,,,,1,8,24,5,0,6,6,3,,,,,,,,,1,0.951758818999906,,,114,001,2019_Sep_19_1009,MusicAffectPsychophysiology2019,3.0.5,59.61282140162784,
To what extent did the music make you feel ,ANGRY,30MonoWAV/30MonoH2.wav,2,2,1,6,,,,,1,8,24,5,0,7,7,2,,,,,,,,,1,0.7852201549999336,,,114,001,2019_Sep_19_1009,MusicAffectPsychophysiology2019,3.0.5,59.61282140162784,
To what extent did the music make you feel ,GUILTY,30MonoWAV/30MonoH2.wav,2,2,1,6,,,,,1,8,24,5,0,8,8,5,,,,,,,,,1,0.7699634640000568,,,114,001,2019_Sep_19_1009,MusicAffectPsychophysiology2019,3.0.5,59.61282140162784,
To what extent did the music make you feel ,TENDER,30MonoWAV/30MonoH2.wav,2,2,1,6,,,,,1,8,24,5,0,9,9,10,,,,,,,,,2,0.9195429520000289,,,114,001,2019_Sep_19_1009,MusicAffectPsychophysiology2019,3.0.5,59.61282140162784,
To what extent did the music make you feel ,ASHAMED,30MonoWAV/30MonoH2.wav,2,2,1,6,,,,,1,8,24,5,0,10,10,4,,,,,,,,,1,0.7364112950001527,,,114,001,2019_Sep_19_1009,MusicAffectPsychophysiology2019,3.0.5,59.61282140162784,
To what extent did the music make you feel ,ACTIVE,30MonoWAV/30MonoH2.wav,2,2,1,6,,,,,1,8,24,5,0,11,11,9,,,,,,,,,3,1.5692385820000254,,,114,001,2019_Sep_19_1009,MusicAffectPsychophysiology2019,3.0.5,59.61282140162784,
,,30MonoWAV/30MonoH2.wav,2,2,1,6,,,,,1,8,24,5,,,,,,,,,,,,,,,,,114,001,2019_Sep_19_1009,MusicAffectPsychophysiology2019,3.0.5,59.61282140162784,
To what extent did the music make you feel ,SCARED,30MonoWAV/30MonoT3.wav,2,1,4,15,,,,,1,9,25,14,0,0,0,11,,,1,2.3026968130000114,3,2.4849771980002515,4,1.9909173709997958,1,1.067934871000034,,,114,001,2019_Sep_19_1009,MusicAffectPsychophysiology2019,3.0.5,59.61282140162784,
To what extent did the music make you feel ,FRUSTRATED,30MonoWAV/30MonoT3.wav,2,1,4,15,,,,,1,9,25,14,0,1,1,3,,,,,,,,,1,0.9357165649998933,,,114,001,2019_Sep_19_1009,MusicAffectPsychophysiology2019,3.0.5,59.61282140162784,
To what extent did the music make you feel ,ANGRY,30MonoWAV/30MonoT3.wav,2,1,4,15,,,,,1,9,25,14,0,2,2,2,,,,,,,,,1,1.0357111729999815,,,114,001,2019_Sep_19_1009,MusicAffectPsychophysiology2019,3.0.5,59.61282140162784,
To what extent did the music make you feel ,HAPPY,30MonoWAV/30MonoT3.wav,2,1,4,15,,,,,1,9,25,14,0,3,3,6,,,,,,,,,2,1.3856730620000235,,,114,001,2019_Sep_19_1009,MusicAffectPsychophysiology2019,3.0.5,59.61282140162784,
To what extent did the music make you feel ,TENDER,30MonoWAV/30MonoT3.wav,2,1,4,15,,,,,1,9,25,14,0,4,4,10,,,,,,,,,4,2.3276418380000905,,,114,001,2019_Sep_19_1009,MusicAffectPsychophysiology2019,3.0.5,59.61282140162784,
To what extent did the music make you feel ,GUILTY,30MonoWAV/30MonoT3.wav,2,1,4,15,,,,,1,9,25,14,0,5,5,5,,,,,,,,,1,1.0768099179999808,,,114,001,2019_Sep_19_1009,MusicAffectPsychophysiology2019,3.0.5,59.61282140162784,
To what extent did the music make you feel ,ACTIVE,30MonoWAV/30MonoT3.wav,2,1,4,15,,,,,1,9,25,14,0,6,6,9,,,,,,,,,1,0.8022523419999743,,,114,001,2019_Sep_19_1009,MusicAffectPsychophysiology2019,3.0.5,59.61282140162784,
To what extent did the music make you feel ,SAD,30MonoWAV/30MonoT3.wav,2,1,4,15,,,,,1,9,25,14,0,7,7,0,,,,,,,,,1,0.9192569309998362,,,114,001,2019_Sep_19_1009,MusicAffectPsychophysiology2019,3.0.5,59.61282140162784,
To what extent did the music make you feel ,EXCITED,30MonoWAV/30MonoT3.wav,2,1,4,15,,,,,1,9,25,14,0,8,8,7,,,,,,,,,1,0.9193591759999435,,,114,001,2019_Sep_19_1009,MusicAffectPsychophysiology2019,3.0.5,59.61282140162784,
To what extent did the music make you feel ,ASHAMED,30MonoWAV/30MonoT3.wav,2,1,4,15,,,,,1,9,25,14,0,9,9,4,,,,,,,,,1,1.002048645999821,,,114,001,2019_Sep_19_1009,MusicAffectPsychophysiology2019,3.0.5,59.61282140162784,
To what extent did the music make you feel ,ANXIOUS ,30MonoWAV/30MonoT3.wav,2,1,4,15,,,,,1,9,25,14,0,10,10,1,,,,,,,,,1,0.7024052189999566,,,114,001,2019_Sep_19_1009,MusicAffectPsychophysiology2019,3.0.5,59.61282140162784,
To what extent did the music make you feel ,ALERT,30MonoWAV/30MonoT3.wav,2,1,4,15,,,,,1,9,25,14,0,11,11,8,,,,,,,,,1,0.850270695999825,,,114,001,2019_Sep_19_1009,MusicAffectPsychophysiology2019,3.0.5,59.61282140162784,
,,30MonoWAV/30MonoT3.wav,2,1,4,15,,,,,1,9,25,14,,,,,,,,,,,,,,,,,114,001,2019_Sep_19_1009,MusicAffectPsychophysiology2019,3.0.5,59.61282140162784,
To what extent did the music make you feel ,GUILTY,30MonoWAV/30MonoF3.wav,1,2,2,3,,,,,1,10,26,2,0,0,0,5,,,3,2.749819167000169,3,1.454030698999759,3,1.3023752280000735,2,2.059380847000284,,,114,001,2019_Sep_19_1009,MusicAffectPsychophysiology2019,3.0.5,59.61282140162784,
To what extent did the music make you feel ,ASHAMED,30MonoWAV/30MonoF3.wav,1,2,2,3,,,,,1,10,26,2,0,1,1,4,,,,,,,,,1,1.1521534930002417,,,114,001,2019_Sep_19_1009,MusicAffectPsychophysiology2019,3.0.5,59.61282140162784,
To what extent did the music make you feel ,EXCITED,30MonoWAV/30MonoF3.wav,1,2,2,3,,,,,1,10,26,2,0,2,2,7,,,,,,,,,3,1.452498758999809,,,114,001,2019_Sep_19_1009,MusicAffectPsychophysiology2019,3.0.5,59.61282140162784,
To what extent did the music make you feel ,ALERT,30MonoWAV/30MonoF3.wav,1,2,2,3,,,,,1,10,26,2,0,3,3,8,,,,,,,,,3,1.1187036619999162,,,114,001,2019_Sep_19_1009,MusicAffectPsychophysiology2019,3.0.5,59.61282140162784,
To what extent did the music make you feel ,ANGRY,30MonoWAV/30MonoF3.wav,1,2,2,3,,,,,1,10,26,2,0,4,4,2,,,,,,,,,1,1.1192530890002672,,,114,001,2019_Sep_19_1009,MusicAffectPsychophysiology2019,3.0.5,59.61282140162784,
To what extent did the music make you feel ,HAPPY,30MonoWAV/30MonoF3.wav,1,2,2,3,,,,,1,10,26,2,0,5,5,6,,,,,,,,,3,1.1195670249999239,,,114,001,2019_Sep_19_1009,MusicAffectPsychophysiology2019,3.0.5,59.61282140162784,
To what extent did the music make you feel ,SCARED,30MonoWAV/30MonoF3.wav,1,2,2,3,,,,,1,10,26,2,0,6,6,11,,,,,,,,,1,1.083765014999699,,,114,001,2019_Sep_19_1009,MusicAffectPsychophysiology2019,3.0.5,59.61282140162784,
To what extent did the music make you feel ,ANXIOUS ,30MonoWAV/30MonoF3.wav,1,2,2,3,,,,,1,10,26,2,0,7,7,1,,,,,,,,,2,1.0366989799999828,,,114,001,2019_Sep_19_1009,MusicAffectPsychophysiology2019,3.0.5,59.61282140162784,
To what extent did the music make you feel ,SAD,30MonoWAV/30MonoF3.wav,1,2,2,3,,,,,1,10,26,2,0,8,8,0,,,,,,,,,1,1.0675592410002537,,,114,001,2019_Sep_19_1009,MusicAffectPsychophysiology2019,3.0.5,59.61282140162784,
To what extent did the music make you feel ,TENDER,30MonoWAV/30MonoF3.wav,1,2,2,3,,,,,1,10,26,2,0,9,9,10,,,,,,,,,1,1.4331269430003886,,,114,001,2019_Sep_19_1009,MusicAffectPsychophysiology2019,3.0.5,59.61282140162784,
To what extent did the music make you feel ,FRUSTRATED,30MonoWAV/30MonoF3.wav,1,2,2,3,,,,,1,10,26,2,0,10,10,3,,,,,,,,,1,1.05218565999985,,,114,001,2019_Sep_19_1009,MusicAffectPsychophysiology2019,3.0.5,59.61282140162784,
To what extent did the music make you feel ,ACTIVE,30MonoWAV/30MonoF3.wav,1,2,2,3,,,,,1,10,26,2,0,11,11,9,,,,,,,,,3,1.1340664969998215,,,114,001,2019_Sep_19_1009,MusicAffectPsychophysiology2019,3.0.5,59.61282140162784,
,,30MonoWAV/30MonoF3.wav,1,2,2,3,,,,,1,10,26,2,,,,,,,,,,,,,,,,,114,001,2019_Sep_19_1009,MusicAffectPsychophysiology2019,3.0.5,59.61282140162784,
To what extent did the music make you feel ,ALERT,30MonoWAV/30MonoS4.wav,1,1,3,12,,,,,1,11,27,11,0,0,0,8,,,1,4.352549601999726,2,2.034503455000049,3,1.6856991689996903,1,1.174295585999971,,,114,001,2019_Sep_19_1009,MusicAffectPsychophysiology2019,3.0.5,59.61282140162784,
To what extent did the music make you feel ,EXCITED,30MonoWAV/30MonoS4.wav,1,1,3,12,,,,,1,11,27,11,0,1,1,7,,,,,,,,,1,0.7832907340002748,,,114,001,2019_Sep_19_1009,MusicAffectPsychophysiology2019,3.0.5,59.61282140162784,
To what extent did the music make you feel ,FRUSTRATED,30MonoWAV/30MonoS4.wav,1,1,3,12,,,,,1,11,27,11,0,2,2,3,,,,,,,,,1,0.867463644000054,,,114,001,2019_Sep_19_1009,MusicAffectPsychophysiology2019,3.0.5,59.61282140162784,
To what extent did the music make you feel ,ANXIOUS ,30MonoWAV/30MonoS4.wav,1,1,3,12,,,,,1,11,27,11,0,3,3,1,,,,,,,,,2,1.11893886200005,,,114,001,2019_Sep_19_1009,MusicAffectPsychophysiology2019,3.0.5,59.61282140162784,
To what extent did the music make you feel ,TENDER,30MonoWAV/30MonoS4.wav,1,1,3,12,,,,,1,11,27,11,0,4,4,10,,,,,,,,,2,1.4684190709999712,,,114,001,2019_Sep_19_1009,MusicAffectPsychophysiology2019,3.0.5,59.61282140162784,
To what extent did the music make you feel ,HAPPY,30MonoWAV/30MonoS4.wav,1,1,3,12,,,,,1,11,27,11,0,5,5,6,,,,,,,,,1,1.0364339569996446,,,114,001,2019_Sep_19_1009,MusicAffectPsychophysiology2019,3.0.5,59.61282140162784,
To what extent did the music make you feel ,SAD,30MonoWAV/30MonoS4.wav,1,1,3,12,,,,,1,11,27,11,0,6,6,0,,,,,,,,,5,2.2015724080001746,,,114,001,2019_Sep_19_1009,MusicAffectPsychophysiology2019,3.0.5,59.61282140162784,
To what extent did the music make you feel ,ASHAMED,30MonoWAV/30MonoS4.wav,1,1,3,12,,,,,1,11,27,11,0,7,7,4,,,,,,,,,1,2.968389089000084,,,114,001,2019_Sep_19_1009,MusicAffectPsychophysiology2019,3.0.5,59.61282140162784,
To what extent did the music make you feel ,ACTIVE,30MonoWAV/30MonoS4.wav,1,1,3,12,,,,,1,11,27,11,0,8,8,9,,,,,,,,,2,0.9363938880001115,,,114,001,2019_Sep_19_1009,MusicAffectPsychophysiology2019,3.0.5,59.61282140162784,
To what extent did the music make you feel ,ANGRY,30MonoWAV/30MonoS4.wav,1,1,3,12,,,,,1,11,27,11,0,9,9,2,,,,,,,,,1,0.9166800470002272,,,114,001,2019_Sep_19_1009,MusicAffectPsychophysiology2019,3.0.5,59.61282140162784,
To what extent did the music make you feel ,SCARED,30MonoWAV/30MonoS4.wav,1,1,3,12,,,,,1,11,27,11,0,10,10,11,,,,,,,,,1,1.1184451700000864,,,114,001,2019_Sep_19_1009,MusicAffectPsychophysiology2019,3.0.5,59.61282140162784,
To what extent did the music make you feel ,GUILTY,30MonoWAV/30MonoS4.wav,1,1,3,12,,,,,1,11,27,11,0,11,11,5,,,,,,,,,1,0.8166956939999181,,,114,001,2019_Sep_19_1009,MusicAffectPsychophysiology2019,3.0.5,59.61282140162784,
,,30MonoWAV/30MonoS4.wav,1,1,3,12,,,,,1,11,27,11,,,,,,,,,,,,,,,,,114,001,2019_Sep_19_1009,MusicAffectPsychophysiology2019,3.0.5,59.61282140162784,
To what extent did the music make you feel ,HAPPY,30MonoWAV/30MonoT2.wav,2,1,4,14,,,,,1,12,28,13,0,0,0,6,,,2,2.83608831499987,3,1.135227506999854,3,1.0684610170001179,3,2.05223895600011,,,114,001,2019_Sep_19_1009,MusicAffectPsychophysiology2019,3.0.5,59.61282140162784,
To what extent did the music make you feel ,TENDER,30MonoWAV/30MonoT2.wav,2,1,4,14,,,,,1,12,28,13,0,1,1,10,,,,,,,,,3,1.4184588070002064,,,114,001,2019_Sep_19_1009,MusicAffectPsychophysiology2019,3.0.5,59.61282140162784,
To what extent did the music make you feel ,ANGRY,30MonoWAV/30MonoT2.wav,2,1,4,14,,,,,1,12,28,13,0,2,2,2,,,,,,,,,1,1.010229137999886,,,114,001,2019_Sep_19_1009,MusicAffectPsychophysiology2019,3.0.5,59.61282140162784,
To what extent did the music make you feel ,FRUSTRATED,30MonoWAV/30MonoT2.wav,2,1,4,14,,,,,1,12,28,13,0,3,3,3,,,,,,,,,1,0.8797931349999999,,,114,001,2019_Sep_19_1009,MusicAffectPsychophysiology2019,3.0.5,59.61282140162784,
To what extent did the music make you feel ,ASHAMED,30MonoWAV/30MonoT2.wav,2,1,4,14,,,,,1,12,28,13,0,4,4,4,,,,,,,,,1,0.8362655500000074,,,114,001,2019_Sep_19_1009,MusicAffectPsychophysiology2019,3.0.5,59.61282140162784,
To what extent did the music make you feel ,EXCITED,30MonoWAV/30MonoT2.wav,2,1,4,14,,,,,1,12,28,13,0,5,5,7,,,,,,,,,3,0.9849666750001234,,,114,001,2019_Sep_19_1009,MusicAffectPsychophysiology2019,3.0.5,59.61282140162784,
To what extent did the music make you feel ,GUILTY,30MonoWAV/30MonoT2.wav,2,1,4,14,,,,,1,12,28,13,0,6,6,5,,,,,,,,,1,0.7686193290001029,,,114,001,2019_Sep_19_1009,MusicAffectPsychophysiology2019,3.0.5,59.61282140162784,
To what extent did the music make you feel ,ANXIOUS ,30MonoWAV/30MonoT2.wav,2,1,4,14,,,,,1,12,28,13,0,7,7,1,,,,,,,,,2,0.8354026010001689,,,114,001,2019_Sep_19_1009,MusicAffectPsychophysiology2019,3.0.5,59.61282140162784,
To what extent did the music make you feel ,SCARED,30MonoWAV/30MonoT2.wav,2,1,4,14,,,,,1,12,28,13,0,8,8,11,,,,,,,,,1,0.9864742039999328,,,114,001,2019_Sep_19_1009,MusicAffectPsychophysiology2019,3.0.5,59.61282140162784,
To what extent did the music make you feel ,ALERT,30MonoWAV/30MonoT2.wav,2,1,4,14,,,,,1,12,28,13,0,9,9,8,,,,,,,,,2,1.2359362689999216,,,114,001,2019_Sep_19_1009,MusicAffectPsychophysiology2019,3.0.5,59.61282140162784,
To what extent did the music make you feel ,SAD,30MonoWAV/30MonoT2.wav,2,1,4,14,,,,,1,12,28,13,0,10,10,0,,,,,,,,,1,0.9855686699997932,,,114,001,2019_Sep_19_1009,MusicAffectPsychophysiology2019,3.0.5,59.61282140162784,
To what extent did the music make you feel ,ACTIVE,30MonoWAV/30MonoT2.wav,2,1,4,14,,,,,1,12,28,13,0,11,11,9,,,,,,,,,1,1.3177924780002286,,,114,001,2019_Sep_19_1009,MusicAffectPsychophysiology2019,3.0.5,59.61282140162784,
,,30MonoWAV/30MonoT2.wav,2,1,4,14,,,,,1,12,28,13,,,,,,,,,,,,,,,,,114,001,2019_Sep_19_1009,MusicAffectPsychophysiology2019,3.0.5,59.61282140162784,
To what extent did the music make you feel ,HAPPY,30MonoWAV/30MonoF1.wav,1,2,2,1,,,,,1,13,29,0,0,0,0,6,,,4,2.48367222700017,2,2.7016063680002844,3,1.4702490079998825,1,1.8725721579999117,,,114,001,2019_Sep_19_1009,MusicAffectPsychophysiology2019,3.0.5,59.61282140162784,
To what extent did the music make you feel ,SAD,30MonoWAV/30MonoF1.wav,1,2,2,1,,,,,1,13,29,0,0,1,1,0,,,,,,,,,1,1.265756496999984,,,114,001,2019_Sep_19_1009,MusicAffectPsychophysiology2019,3.0.5,59.61282140162784,
To what extent did the music make you feel ,ASHAMED,30MonoWAV/30MonoF1.wav,1,2,2,1,,,,,1,13,29,0,0,2,2,4,,,,,,,,,1,2.5354769419996046,,,114,001,2019_Sep_19_1009,MusicAffectPsychophysiology2019,3.0.5,59.61282140162784,
To what extent did the music make you feel ,EXCITED,30MonoWAV/30MonoF1.wav,1,2,2,1,,,,,1,13,29,0,0,3,3,7,,,,,,,,,4,1.3354639330000282,,,114,001,2019_Sep_19_1009,MusicAffectPsychophysiology2019,3.0.5,59.61282140162784,
To what extent did the music make you feel ,SCARED,30MonoWAV/30MonoF1.wav,1,2,2,1,,,,,1,13,29,0,0,4,4,11,,,,,,,,,3,1.333253751999564,,,114,001,2019_Sep_19_1009,MusicAffectPsychophysiology2019,3.0.5,59.61282140162784,
To what extent did the music make you feel ,TENDER,30MonoWAV/30MonoF1.wav,1,2,2,1,,,,,1,13,29,0,0,5,5,10,,,,,,,,,1,1.0361070349999864,,,114,001,2019_Sep_19_1009,MusicAffectPsychophysiology2019,3.0.5,59.61282140162784,
To what extent did the music make you feel ,GUILTY,30MonoWAV/30MonoF1.wav,1,2,2,1,,,,,1,13,29,0,0,6,6,5,,,,,,,,,2,1.0352266220002093,,,114,001,2019_Sep_19_1009,MusicAffectPsychophysiology2019,3.0.5,59.61282140162784,
To what extent did the music make you feel ,ANGRY,30MonoWAV/30MonoF1.wav,1,2,2,1,,,,,1,13,29,0,0,7,7,2,,,,,,,,,2,1.3863475550001567,,,114,001,2019_Sep_19_1009,MusicAffectPsychophysiology2019,3.0.5,59.61282140162784,
To what extent did the music make you feel ,FRUSTRATED,30MonoWAV/30MonoF1.wav,1,2,2,1,,,,,1,13,29,0,0,8,8,3,,,,,,,,,2,1.2369375680000303,,,114,001,2019_Sep_19_1009,MusicAffectPsychophysiology2019,3.0.5,59.61282140162784,
To what extent did the music make you feel ,ACTIVE,30MonoWAV/30MonoF1.wav,1,2,2,1,,,,,1,13,29,0,0,9,9,9,,,,,,,,,3,1.219373314999757,,,114,001,2019_Sep_19_1009,MusicAffectPsychophysiology2019,3.0.5,59.61282140162784,
To what extent did the music make you feel ,ALERT,30MonoWAV/30MonoF1.wav,1,2,2,1,,,,,1,13,29,0,0,10,10,8,,,,,,,,,4,1.1025486359999377,,,114,001,2019_Sep_19_1009,MusicAffectPsychophysiology2019,3.0.5,59.61282140162784,
To what extent did the music make you feel ,ANXIOUS ,30MonoWAV/30MonoF1.wav,1,2,2,1,,,,,1,13,29,0,0,11,11,1,,,,,,,,,3,1.1528031170000759,,,114,001,2019_Sep_19_1009,MusicAffectPsychophysiology2019,3.0.5,59.61282140162784,
,,30MonoWAV/30MonoF1.wav,1,2,2,1,,,,,1,13,29,0,,,,,,,,,,,,,,,,,114,001,2019_Sep_19_1009,MusicAffectPsychophysiology2019,3.0.5,59.61282140162784,
To what extent did the music make you feel ,SAD,30MonoWAV/30MonoT4.wav,2,1,4,16,,,,,1,14,30,15,0,0,0,0,,,3,2.652832148000016,4,1.6023311970002396,4,1.1857023540001137,1,3.9732347399999526,,,114,001,2019_Sep_19_1009,MusicAffectPsychophysiology2019,3.0.5,59.61282140162784,
To what extent did the music make you feel ,ASHAMED,30MonoWAV/30MonoT4.wav,2,1,4,16,,,,,1,14,30,15,0,1,1,4,,,,,,,,,1,0.8863005099997281,,,114,001,2019_Sep_19_1009,MusicAffectPsychophysiology2019,3.0.5,59.61282140162784,
To what extent did the music make you feel ,ANGRY,30MonoWAV/30MonoT4.wav,2,1,4,16,,,,,1,14,30,15,0,2,2,2,,,,,,,,,1,0.7850900640000873,,,114,001,2019_Sep_19_1009,MusicAffectPsychophysiology2019,3.0.5,59.61282140162784,
To what extent did the music make you feel ,ANXIOUS ,30MonoWAV/30MonoT4.wav,2,1,4,16,,,,,1,14,30,15,0,3,3,1,,,,,,,,,1,0.8025096709998252,,,114,001,2019_Sep_19_1009,MusicAffectPsychophysiology2019,3.0.5,59.61282140162784,
To what extent did the music make you feel ,TENDER,30MonoWAV/30MonoT4.wav,2,1,4,16,,,,,1,14,30,15,0,4,4,10,,,,,,,,,4,1.486572414999955,,,114,001,2019_Sep_19_1009,MusicAffectPsychophysiology2019,3.0.5,59.61282140162784,
To what extent did the music make you feel ,ALERT,30MonoWAV/30MonoT4.wav,2,1,4,16,,,,,1,14,30,15,0,5,5,8,,,,,,,,,2,1.1860000699998636,,,114,001,2019_Sep_19_1009,MusicAffectPsychophysiology2019,3.0.5,59.61282140162784,
To what extent did the music make you feel ,SCARED,30MonoWAV/30MonoT4.wav,2,1,4,16,,,,,1,14,30,15,0,6,6,11,,,,,,,,,1,0.9230283679999047,,,114,001,2019_Sep_19_1009,MusicAffectPsychophysiology2019,3.0.5,59.61282140162784,
To what extent did the music make you feel ,ACTIVE,30MonoWAV/30MonoT4.wav,2,1,4,16,,,,,1,14,30,15,0,7,7,9,,,,,,,,,2,0.9353174779998881,,,114,001,2019_Sep_19_1009,MusicAffectPsychophysiology2019,3.0.5,59.61282140162784,
To what extent did the music make you feel ,HAPPY,30MonoWAV/30MonoT4.wav,2,1,4,16,,,,,1,14,30,15,0,8,8,6,,,,,,,,,4,1.436748224999974,,,114,001,2019_Sep_19_1009,MusicAffectPsychophysiology2019,3.0.5,59.61282140162784,
To what extent did the music make you feel ,FRUSTRATED,30MonoWAV/30MonoT4.wav,2,1,4,16,,,,,1,14,30,15,0,9,9,3,,,,,,,,,1,1.8031461410000702,,,114,001,2019_Sep_19_1009,MusicAffectPsychophysiology2019,3.0.5,59.61282140162784,
To what extent did the music make you feel ,EXCITED,30MonoWAV/30MonoT4.wav,2,1,4,16,,,,,1,14,30,15,0,10,10,7,,,,,,,,,4,1.3687190759997065,,,114,001,2019_Sep_19_1009,MusicAffectPsychophysiology2019,3.0.5,59.61282140162784,
To what extent did the music make you feel ,GUILTY,30MonoWAV/30MonoT4.wav,2,1,4,16,,,,,1,14,30,15,0,11,11,5,,,,,,,,,1,1.0702267890001167,,,114,001,2019_Sep_19_1009,MusicAffectPsychophysiology2019,3.0.5,59.61282140162784,
,,30MonoWAV/30MonoT4.wav,2,1,4,16,,,,,1,14,30,15,,,,,,,,,,,,,,,,,114,001,2019_Sep_19_1009,MusicAffectPsychophysiology2019,3.0.5,59.61282140162784,
To what extent did the music make you feel ,FRUSTRATED,30MonoWAV/30MonoS3.wav,1,1,3,11,,,,,1,15,31,10,0,0,0,3,,,2,3.069473341000048,1,2.102338195000357,3,1.735745515000417,1,1.453753364000022,,,114,001,2019_Sep_19_1009,MusicAffectPsychophysiology2019,3.0.5,59.61282140162784,
To what extent did the music make you feel ,ACTIVE,30MonoWAV/30MonoS3.wav,1,1,3,11,,,,,1,15,31,10,0,1,1,9,,,,,,,,,1,1.518724609000401,,,114,001,2019_Sep_19_1009,MusicAffectPsychophysiology2019,3.0.5,59.61282140162784,
To what extent did the music make you feel ,SAD,30MonoWAV/30MonoS3.wav,1,1,3,11,,,,,1,15,31,10,0,2,2,0,,,,,,,,,2,1.7190784379999968,,,114,001,2019_Sep_19_1009,MusicAffectPsychophysiology2019,3.0.5,59.61282140162784,
To what extent did the music make you feel ,ANXIOUS ,30MonoWAV/30MonoS3.wav,1,1,3,11,,,,,1,15,31,10,0,3,3,1,,,,,,,,,5,2.918901256999561,,,114,001,2019_Sep_19_1009,MusicAffectPsychophysiology2019,3.0.5,59.61282140162784,
To what extent did the music make you feel ,HAPPY,30MonoWAV/30MonoS3.wav,1,1,3,11,,,,,1,15,31,10,0,4,4,6,,,,,,,,,1,1.618344065999736,,,114,001,2019_Sep_19_1009,MusicAffectPsychophysiology2019,3.0.5,59.61282140162784,
To what extent did the music make you feel ,EXCITED,30MonoWAV/30MonoS3.wav,1,1,3,11,,,,,1,15,31,10,0,5,5,7,,,,,,,,,3,1.636253974000283,,,114,001,2019_Sep_19_1009,MusicAffectPsychophysiology2019,3.0.5,59.61282140162784,
To what extent did the music make you feel ,TENDER,30MonoWAV/30MonoS3.wav,1,1,3,11,,,,,1,15,31,10,0,6,6,10,,,,,,,,,1,1.2024107789998197,,,114,001,2019_Sep_19_1009,MusicAffectPsychophysiology2019,3.0.5,59.61282140162784,
To what extent did the music make you feel ,ASHAMED,30MonoWAV/30MonoS3.wav,1,1,3,11,,,,,1,15,31,10,0,7,7,4,,,,,,,,,2,1.118706944999758,,,114,001,2019_Sep_19_1009,MusicAffectPsychophysiology2019,3.0.5,59.61282140162784,
To what extent did the music make you feel ,ANGRY,30MonoWAV/30MonoS3.wav,1,1,3,11,,,,,1,15,31,10,0,8,8,2,,,,,,,,,1,1.0850573749999057,,,114,001,2019_Sep_19_1009,MusicAffectPsychophysiology2019,3.0.5,59.61282140162784,
To what extent did the music make you feel ,ALERT,30MonoWAV/30MonoS3.wav,1,1,3,11,,,,,1,15,31,10,0,9,9,8,,,,,,,,,4,1.6028120099999796,,,114,001,2019_Sep_19_1009,MusicAffectPsychophysiology2019,3.0.5,59.61282140162784,
To what extent did the music make you feel ,GUILTY,30MonoWAV/30MonoS3.wav,1,1,3,11,,,,,1,15,31,10,0,10,10,5,,,,,,,,,1,1.3533279479997873,,,114,001,2019_Sep_19_1009,MusicAffectPsychophysiology2019,3.0.5,59.61282140162784,
To what extent did the music make you feel ,SCARED,30MonoWAV/30MonoS3.wav,1,1,3,11,,,,,1,15,31,10,0,11,11,11,,,,,,,,,4,1.3669493110000985,,,114,001,2019_Sep_19_1009,MusicAffectPsychophysiology2019,3.0.5,59.61282140162784,
,,30MonoWAV/30MonoS3.wav,1,1,3,11,,,,,1,15,31,10,,,,,,,,,,,,,,,,,114,001,2019_Sep_19_1009,MusicAffectPsychophysiology2019,3.0.5,59.61282140162784,
,,,,,,,,,,,,,,,,,,,,,,,,,,,,,space,5.678430257999935,114,001,2019_Sep_19_1009,MusicAffectPsychophysiology2019,3.0.5,59.61282140162784,
