Instruction,Word,song,valence,arousal,affectcat,songmark,pracwords.thisRepN,pracwords.thisTrialN,pracwords.thisN,pracwords.thisIndex,songtrials.thisRepN,songtrials.thisTrialN,songtrials.thisN,songtrials.thisIndex,words.thisRepN,words.thisTrialN,words.thisN,words.thisIndex,begin.keys,begin.rt,arousalkey.keys,arousalkey.rt,valencekey.keys,valencekey.rt,likekey.keys,likekey.rt,WordResponse.keys,WordResponse.rt,key_resp_2.keys,key_resp_2.rt,participant,session,date,expName,psychopyVersion,frameRate,
,,,,,,,,,,,,,,,,,,,space,14.185315963999528,,,,,,,,,,,115,001,2019_Sep_23_1011,MusicAffectPsychophysiology2019,3.0.5,60.02233431012211,
,,,,,,,,,,,,,,,,,,,,,2,5.851743221999641,,,,,,,,,115,001,2019_Sep_23_1011,MusicAffectPsychophysiology2019,3.0.5,60.02233431012211,
,,,,,,,,,,,,,,,,,,,,,,,3,4.269176153999069,,,,,,,115,001,2019_Sep_23_1011,MusicAffectPsychophysiology2019,3.0.5,60.02233431012211,
,,,,,,,,,,,,,,,,,,,,,,,,,2,3.802498260998618,,,,,115,001,2019_Sep_23_1011,MusicAffectPsychophysiology2019,3.0.5,60.02233431012211,
To what extent did the music make you feel ,GUILTY,,,,,,0,0,0,5,,,,,,,,,,,,,,,,,2,8.30192883899872,,,115,001,2019_Sep_23_1011,MusicAffectPsychophysiology2019,3.0.5,60.02233431012211,
To what extent did the music make you feel ,SAD,,,,,,0,1,1,0,,,,,,,,,,,,,,,,,2,1.4349602410002262,,,115,001,2019_Sep_23_1011,MusicAffectPsychophysiology2019,3.0.5,60.02233431012211,
To what extent did the music make you feel ,EXCITED,,,,,,0,2,2,7,,,,,,,,,,,,,,,,,1,1.6423126449990377,,,115,001,2019_Sep_23_1011,MusicAffectPsychophysiology2019,3.0.5,60.02233431012211,
To what extent did the music make you feel ,ASHAMED,,,,,,0,3,3,4,,,,,,,,,,,,,,,,,1,1.1525173619993438,,,115,001,2019_Sep_23_1011,MusicAffectPsychophysiology2019,3.0.5,60.02233431012211,
To what extent did the music make you feel ,HAPPY,,,,,,0,4,4,6,,,,,,,,,,,,,,,,,1,1.7838757809986419,,,115,001,2019_Sep_23_1011,MusicAffectPsychophysiology2019,3.0.5,60.02233431012211,
To what extent did the music make you feel ,SCARED,,,,,,0,5,5,11,,,,,,,,,,,,,,,,,2,2.702488936000009,,,115,001,2019_Sep_23_1011,MusicAffectPsychophysiology2019,3.0.5,60.02233431012211,
To what extent did the music make you feel ,TENDER,,,,,,0,6,6,10,,,,,,,,,,,,,,,,,1,1.1522291580004094,,,115,001,2019_Sep_23_1011,MusicAffectPsychophysiology2019,3.0.5,60.02233431012211,
To what extent did the music make you feel ,ANGRY,,,,,,0,7,7,2,,,,,,,,,,,,,,,,,1,2.3860238250017574,,,115,001,2019_Sep_23_1011,MusicAffectPsychophysiology2019,3.0.5,60.02233431012211,
To what extent did the music make you feel ,ACTIVE,,,,,,0,8,8,9,,,,,,,,,,,,,,,,,1,0.7853436890000012,,,115,001,2019_Sep_23_1011,MusicAffectPsychophysiology2019,3.0.5,60.02233431012211,
To what extent did the music make you feel ,ANXIOUS ,,,,,,0,9,9,1,,,,,,,,,,,,,,,,,2,1.7528513159995782,,,115,001,2019_Sep_23_1011,MusicAffectPsychophysiology2019,3.0.5,60.02233431012211,
To what extent did the music make you feel ,FRUSTRATED,,,,,,0,10,10,3,,,,,,,,,,,,,,,,,1,1.208243475000927,,,115,001,2019_Sep_23_1011,MusicAffectPsychophysiology2019,3.0.5,60.02233431012211,
To what extent did the music make you feel ,ALERT,,,,,,0,11,11,8,,,,,,,,,,,,,,,,,1,1.8347441559999424,,,115,001,2019_Sep_23_1011,MusicAffectPsychophysiology2019,3.0.5,60.02233431012211,
To what extent did the music make you feel ,HAPPY,30MonoWAV/30MonoT3.wav,2,1,4,15,,,,,0,0,0,14,0,0,0,6,,,1,2.7365698230005364,3,2.718974444000196,3,1.4191791410012229,3,1.3364443569989817,,,115,001,2019_Sep_23_1011,MusicAffectPsychophysiology2019,3.0.5,60.02233431012211,
To what extent did the music make you feel ,TENDER,30MonoWAV/30MonoT3.wav,2,1,4,15,,,,,0,0,0,14,0,1,1,10,,,,,,,,,3,1.0530641900004412,,,115,001,2019_Sep_23_1011,MusicAffectPsychophysiology2019,3.0.5,60.02233431012211,
To what extent did the music make you feel ,SAD,30MonoWAV/30MonoT3.wav,2,1,4,15,,,,,0,0,0,14,0,2,2,0,,,,,,,,,1,0.7672431880000659,,,115,001,2019_Sep_23_1011,MusicAffectPsychophysiology2019,3.0.5,60.02233431012211,
To what extent did the music make you feel ,ASHAMED,30MonoWAV/30MonoT3.wav,2,1,4,15,,,,,0,0,0,14,0,3,3,4,,,,,,,,,1,0.8527333370002452,,,115,001,2019_Sep_23_1011,MusicAffectPsychophysiology2019,3.0.5,60.02233431012211,
To what extent did the music make you feel ,ALERT,30MonoWAV/30MonoT3.wav,2,1,4,15,,,,,0,0,0,14,0,4,4,8,,,,,,,,,1,1.4355258039995533,,,115,001,2019_Sep_23_1011,MusicAffectPsychophysiology2019,3.0.5,60.02233431012211,
To what extent did the music make you feel ,ANGRY,30MonoWAV/30MonoT3.wav,2,1,4,15,,,,,0,0,0,14,0,5,5,2,,,,,,,,,1,0.8359139210006106,,,115,001,2019_Sep_23_1011,MusicAffectPsychophysiology2019,3.0.5,60.02233431012211,
To what extent did the music make you feel ,FRUSTRATED,30MonoWAV/30MonoT3.wav,2,1,4,15,,,,,0,0,0,14,0,6,6,3,,,,,,,,,1,0.7036432909990253,,,115,001,2019_Sep_23_1011,MusicAffectPsychophysiology2019,3.0.5,60.02233431012211,
To what extent did the music make you feel ,ANXIOUS ,30MonoWAV/30MonoT3.wav,2,1,4,15,,,,,0,0,0,14,0,7,7,1,,,,,,,,,1,0.9165432539994072,,,115,001,2019_Sep_23_1011,MusicAffectPsychophysiology2019,3.0.5,60.02233431012211,
To what extent did the music make you feel ,ACTIVE,30MonoWAV/30MonoT3.wav,2,1,4,15,,,,,0,0,0,14,0,8,8,9,,,,,,,,,2,2.069082652000361,,,115,001,2019_Sep_23_1011,MusicAffectPsychophysiology2019,3.0.5,60.02233431012211,
To what extent did the music make you feel ,SCARED,30MonoWAV/30MonoT3.wav,2,1,4,15,,,,,0,0,0,14,0,9,9,11,,,,,,,,,1,0.8360308119990805,,,115,001,2019_Sep_23_1011,MusicAffectPsychophysiology2019,3.0.5,60.02233431012211,
To what extent did the music make you feel ,EXCITED,30MonoWAV/30MonoT3.wav,2,1,4,15,,,,,0,0,0,14,0,10,10,7,,,,,,,,,1,1.1853350090004824,,,115,001,2019_Sep_23_1011,MusicAffectPsychophysiology2019,3.0.5,60.02233431012211,
To what extent did the music make you feel ,GUILTY,30MonoWAV/30MonoT3.wav,2,1,4,15,,,,,0,0,0,14,0,11,11,5,,,,,,,,,1,0.7365258319987333,,,115,001,2019_Sep_23_1011,MusicAffectPsychophysiology2019,3.0.5,60.02233431012211,
,,30MonoWAV/30MonoT3.wav,2,1,4,15,,,,,0,0,0,14,,,,,,,,,,,,,,,,,115,001,2019_Sep_23_1011,MusicAffectPsychophysiology2019,3.0.5,60.02233431012211,
To what extent did the music make you feel ,EXCITED,30MonoWAV/30MonoS2.wav,1,1,3,10,,,,,0,1,1,9,0,0,0,7,,,2,2.351637567999205,5,2.6511581859995204,5,1.86843263999981,3,2.4443174349999026,,,115,001,2019_Sep_23_1011,MusicAffectPsychophysiology2019,3.0.5,60.02233431012211,
To what extent did the music make you feel ,SCARED,30MonoWAV/30MonoS2.wav,1,1,3,10,,,,,0,1,1,9,0,1,1,11,,,,,,,,,2,1.3358141720000276,,,115,001,2019_Sep_23_1011,MusicAffectPsychophysiology2019,3.0.5,60.02233431012211,
To what extent did the music make you feel ,TENDER,30MonoWAV/30MonoS2.wav,1,1,3,10,,,,,0,1,1,9,0,2,2,10,,,,,,,,,2,1.0695828249990882,,,115,001,2019_Sep_23_1011,MusicAffectPsychophysiology2019,3.0.5,60.02233431012211,
To what extent did the music make you feel ,ANXIOUS ,30MonoWAV/30MonoS2.wav,1,1,3,10,,,,,0,1,1,9,0,3,3,1,,,,,,,,,1,0.8850953559995105,,,115,001,2019_Sep_23_1011,MusicAffectPsychophysiology2019,3.0.5,60.02233431012211,
To what extent did the music make you feel ,ANGRY,30MonoWAV/30MonoS2.wav,1,1,3,10,,,,,0,1,1,9,0,4,4,2,,,,,,,,,2,0.43511489699994854,,,115,001,2019_Sep_23_1011,MusicAffectPsychophysiology2019,3.0.5,60.02233431012211,
To what extent did the music make you feel ,FRUSTRATED,30MonoWAV/30MonoS2.wav,1,1,3,10,,,,,0,1,1,9,0,5,5,3,,,,,,,,,1,2.0012170849986433,,,115,001,2019_Sep_23_1011,MusicAffectPsychophysiology2019,3.0.5,60.02233431012211,
To what extent did the music make you feel ,GUILTY,30MonoWAV/30MonoS2.wav,1,1,3,10,,,,,0,1,1,9,0,6,6,5,,,,,,,,,1,3.0846753169989825,,,115,001,2019_Sep_23_1011,MusicAffectPsychophysiology2019,3.0.5,60.02233431012211,
To what extent did the music make you feel ,HAPPY,30MonoWAV/30MonoS2.wav,1,1,3,10,,,,,0,1,1,9,0,7,7,6,,,,,,,,,4,2.3337860840001667,,,115,001,2019_Sep_23_1011,MusicAffectPsychophysiology2019,3.0.5,60.02233431012211,
To what extent did the music make you feel ,ASHAMED,30MonoWAV/30MonoS2.wav,1,1,3,10,,,,,0,1,1,9,0,8,8,4,,,,,,,,,1,2.0856231399993703,,,115,001,2019_Sep_23_1011,MusicAffectPsychophysiology2019,3.0.5,60.02233431012211,
To what extent did the music make you feel ,SAD,30MonoWAV/30MonoS2.wav,1,1,3,10,,,,,0,1,1,9,0,9,9,0,,,,,,,,,1,0.6025301970003056,,,115,001,2019_Sep_23_1011,MusicAffectPsychophysiology2019,3.0.5,60.02233431012211,
To what extent did the music make you feel ,ACTIVE,30MonoWAV/30MonoS2.wav,1,1,3,10,,,,,0,1,1,9,0,10,10,9,,,,,,,,,2,1.4199128420004854,,,115,001,2019_Sep_23_1011,MusicAffectPsychophysiology2019,3.0.5,60.02233431012211,
To what extent did the music make you feel ,ALERT,30MonoWAV/30MonoS2.wav,1,1,3,10,,,,,0,1,1,9,0,11,11,8,,,,,,,,,2,1.0177589359991543,,,115,001,2019_Sep_23_1011,MusicAffectPsychophysiology2019,3.0.5,60.02233431012211,
,,30MonoWAV/30MonoS2.wav,1,1,3,10,,,,,0,1,1,9,,,,,,,,,,,,,,,,,115,001,2019_Sep_23_1011,MusicAffectPsychophysiology2019,3.0.5,60.02233431012211,
To what extent did the music make you feel ,ANGRY,30MonoWAV/30MonoH1.wav,2,2,1,5,,,,,0,2,2,4,0,0,0,2,,,4,4.503310623000289,4,0.9517546349998156,5,1.769829604001643,2,1.7052737529993465,,,115,001,2019_Sep_23_1011,MusicAffectPsychophysiology2019,3.0.5,60.02233431012211,
To what extent did the music make you feel ,TENDER,30MonoWAV/30MonoH1.wav,2,2,1,5,,,,,0,2,2,4,0,1,1,10,,,,,,,,,2,1.1884008010001708,,,115,001,2019_Sep_23_1011,MusicAffectPsychophysiology2019,3.0.5,60.02233431012211,
To what extent did the music make you feel ,HAPPY,30MonoWAV/30MonoH1.wav,2,2,1,5,,,,,0,2,2,4,0,2,2,6,,,,,,,,,3,1.2865243659998669,,,115,001,2019_Sep_23_1011,MusicAffectPsychophysiology2019,3.0.5,60.02233431012211,
To what extent did the music make you feel ,EXCITED,30MonoWAV/30MonoH1.wav,2,2,1,5,,,,,0,2,2,4,0,3,3,7,,,,,,,,,4,1.1188031549991138,,,115,001,2019_Sep_23_1011,MusicAffectPsychophysiology2019,3.0.5,60.02233431012211,
To what extent did the music make you feel ,ACTIVE,30MonoWAV/30MonoH1.wav,2,2,1,5,,,,,0,2,2,4,0,4,4,9,,,,,,,,,4,0.7032903859999351,,,115,001,2019_Sep_23_1011,MusicAffectPsychophysiology2019,3.0.5,60.02233431012211,
To what extent did the music make you feel ,SAD,30MonoWAV/30MonoH1.wav,2,2,1,5,,,,,0,2,2,4,0,5,5,0,,,,,,,,,1,0.7858476509991306,,,115,001,2019_Sep_23_1011,MusicAffectPsychophysiology2019,3.0.5,60.02233431012211,
To what extent did the music make you feel ,ASHAMED,30MonoWAV/30MonoH1.wav,2,2,1,5,,,,,0,2,2,4,0,6,6,4,,,,,,,,,1,0.6849322729995038,,,115,001,2019_Sep_23_1011,MusicAffectPsychophysiology2019,3.0.5,60.02233431012211,
To what extent did the music make you feel ,ANXIOUS ,30MonoWAV/30MonoH1.wav,2,2,1,5,,,,,0,2,2,4,0,7,7,1,,,,,,,,,1,0.6681955730000482,,,115,001,2019_Sep_23_1011,MusicAffectPsychophysiology2019,3.0.5,60.02233431012211,
To what extent did the music make you feel ,ALERT,30MonoWAV/30MonoH1.wav,2,2,1,5,,,,,0,2,2,4,0,8,8,8,,,,,,,,,4,0.9366274080002768,,,115,001,2019_Sep_23_1011,MusicAffectPsychophysiology2019,3.0.5,60.02233431012211,
To what extent did the music make you feel ,FRUSTRATED,30MonoWAV/30MonoH1.wav,2,2,1,5,,,,,0,2,2,4,0,9,9,3,,,,,,,,,1,0.7212514210004883,,,115,001,2019_Sep_23_1011,MusicAffectPsychophysiology2019,3.0.5,60.02233431012211,
To what extent did the music make you feel ,GUILTY,30MonoWAV/30MonoH1.wav,2,2,1,5,,,,,0,2,2,4,0,10,10,5,,,,,,,,,1,0.7702098190002289,,,115,001,2019_Sep_23_1011,MusicAffectPsychophysiology2019,3.0.5,60.02233431012211,
To what extent did the music make you feel ,SCARED,30MonoWAV/30MonoH1.wav,2,2,1,5,,,,,0,2,2,4,0,11,11,11,,,,,,,,,1,0.7192172249997384,,,115,001,2019_Sep_23_1011,MusicAffectPsychophysiology2019,3.0.5,60.02233431012211,
,,30MonoWAV/30MonoH1.wav,2,2,1,5,,,,,0,2,2,4,,,,,,,,,,,,,,,,,115,001,2019_Sep_23_1011,MusicAffectPsychophysiology2019,3.0.5,60.02233431012211,
To what extent did the music make you feel ,TENDER,30MonoWAV/30MonoS1.wav,1,1,3,9,,,,,0,3,3,8,0,0,0,10,,,1,3.0184390520007582,1,1.2348110919992905,1,1.0356090200002654,1,0.8515146109984926,,,115,001,2019_Sep_23_1011,MusicAffectPsychophysiology2019,3.0.5,60.02233431012211,
To what extent did the music make you feel ,GUILTY,30MonoWAV/30MonoS1.wav,1,1,3,9,,,,,0,3,3,8,0,1,1,5,,,,,,,,,1,0.6361229200010712,,,115,001,2019_Sep_23_1011,MusicAffectPsychophysiology2019,3.0.5,60.02233431012211,
To what extent did the music make you feel ,SAD,30MonoWAV/30MonoS1.wav,1,1,3,9,,,,,0,3,3,8,0,2,2,0,,,,,,,,,2,1.1686286900003324,,,115,001,2019_Sep_23_1011,MusicAffectPsychophysiology2019,3.0.5,60.02233431012211,
To what extent did the music make you feel ,HAPPY,30MonoWAV/30MonoS1.wav,1,1,3,9,,,,,0,3,3,8,0,3,3,6,,,,,,,,,1,0.8859642839997832,,,115,001,2019_Sep_23_1011,MusicAffectPsychophysiology2019,3.0.5,60.02233431012211,
To what extent did the music make you feel ,ASHAMED,30MonoWAV/30MonoS1.wav,1,1,3,9,,,,,0,3,3,8,0,4,4,4,,,,,,,,,2,0.9689408089998324,,,115,001,2019_Sep_23_1011,MusicAffectPsychophysiology2019,3.0.5,60.02233431012211,
To what extent did the music make you feel ,ANGRY,30MonoWAV/30MonoS1.wav,1,1,3,9,,,,,0,3,3,8,0,5,5,2,,,,,,,,,1,1.0516850349995366,,,115,001,2019_Sep_23_1011,MusicAffectPsychophysiology2019,3.0.5,60.02233431012211,
To what extent did the music make you feel ,ANXIOUS ,30MonoWAV/30MonoS1.wav,1,1,3,9,,,,,0,3,3,8,0,6,6,1,,,,,,,,,2,0.8835391700013133,,,115,001,2019_Sep_23_1011,MusicAffectPsychophysiology2019,3.0.5,60.02233431012211,
To what extent did the music make you feel ,EXCITED,30MonoWAV/30MonoS1.wav,1,1,3,9,,,,,0,3,3,8,0,7,7,7,,,,,,,,,1,0.7689342470002885,,,115,001,2019_Sep_23_1011,MusicAffectPsychophysiology2019,3.0.5,60.02233431012211,
To what extent did the music make you feel ,ALERT,30MonoWAV/30MonoS1.wav,1,1,3,9,,,,,0,3,3,8,0,8,8,8,,,,,,,,,1,1.719076766001308,,,115,001,2019_Sep_23_1011,MusicAffectPsychophysiology2019,3.0.5,60.02233431012211,
To what extent did the music make you feel ,ACTIVE,30MonoWAV/30MonoS1.wav,1,1,3,9,,,,,0,3,3,8,0,9,9,9,,,,,,,,,1,1.3860720110005786,,,115,001,2019_Sep_23_1011,MusicAffectPsychophysiology2019,3.0.5,60.02233431012211,
To what extent did the music make you feel ,FRUSTRATED,30MonoWAV/30MonoS1.wav,1,1,3,9,,,,,0,3,3,8,0,10,10,3,,,,,,,,,1,1.014816962999248,,,115,001,2019_Sep_23_1011,MusicAffectPsychophysiology2019,3.0.5,60.02233431012211,
To what extent did the music make you feel ,SCARED,30MonoWAV/30MonoS1.wav,1,1,3,9,,,,,0,3,3,8,0,11,11,11,,,,,,,,,1,1.3197341510003753,,,115,001,2019_Sep_23_1011,MusicAffectPsychophysiology2019,3.0.5,60.02233431012211,
,,30MonoWAV/30MonoS1.wav,1,1,3,9,,,,,0,3,3,8,,,,,,,,,,,,,,,,,115,001,2019_Sep_23_1011,MusicAffectPsychophysiology2019,3.0.5,60.02233431012211,
To what extent did the music make you feel ,HAPPY,30MonoWAV/30MonoT1.wav,2,1,4,13,,,,,0,4,4,12,0,0,0,6,,,3,4.352310029000364,2,1.4688013960003445,2,1.3532344949999242,2,1.875327716999891,,,115,001,2019_Sep_23_1011,MusicAffectPsychophysiology2019,3.0.5,60.02233431012211,
To what extent did the music make you feel ,ANXIOUS ,30MonoWAV/30MonoT1.wav,2,1,4,13,,,,,0,4,4,12,0,1,1,1,,,,,,,,,2,0.9524174010002753,,,115,001,2019_Sep_23_1011,MusicAffectPsychophysiology2019,3.0.5,60.02233431012211,
To what extent did the music make you feel ,GUILTY,30MonoWAV/30MonoT1.wav,2,1,4,13,,,,,0,4,4,12,0,2,2,5,,,,,,,,,2,0.15227804300047865,,,115,001,2019_Sep_23_1011,MusicAffectPsychophysiology2019,3.0.5,60.02233431012211,
To what extent did the music make you feel ,ASHAMED,30MonoWAV/30MonoT1.wav,2,1,4,13,,,,,0,4,4,12,0,3,3,4,,,,,,,,,1,1.852697395001087,,,115,001,2019_Sep_23_1011,MusicAffectPsychophysiology2019,3.0.5,60.02233431012211,
To what extent did the music make you feel ,TENDER,30MonoWAV/30MonoT1.wav,2,1,4,13,,,,,0,4,4,12,0,4,4,10,,,,,,,,,2,0.7026528019996476,,,115,001,2019_Sep_23_1011,MusicAffectPsychophysiology2019,3.0.5,60.02233431012211,
To what extent did the music make you feel ,SCARED,30MonoWAV/30MonoT1.wav,2,1,4,13,,,,,0,4,4,12,0,5,5,11,,,,,,,,,2,2.0856385810002394,,,115,001,2019_Sep_23_1011,MusicAffectPsychophysiology2019,3.0.5,60.02233431012211,
To what extent did the music make you feel ,EXCITED,30MonoWAV/30MonoT1.wav,2,1,4,13,,,,,0,4,4,12,0,6,6,7,,,,,,,,,2,1.6024345379992155,,,115,001,2019_Sep_23_1011,MusicAffectPsychophysiology2019,3.0.5,60.02233431012211,
To what extent did the music make you feel ,ANGRY,30MonoWAV/30MonoT1.wav,2,1,4,13,,,,,0,4,4,12,0,7,7,2,,,,,,,,,1,1.1021156629994948,,,115,001,2019_Sep_23_1011,MusicAffectPsychophysiology2019,3.0.5,60.02233431012211,
To what extent did the music make you feel ,FRUSTRATED,30MonoWAV/30MonoT1.wav,2,1,4,13,,,,,0,4,4,12,0,8,8,3,,,,,,,,,2,1.1870030259997293,,,115,001,2019_Sep_23_1011,MusicAffectPsychophysiology2019,3.0.5,60.02233431012211,
To what extent did the music make you feel ,ACTIVE,30MonoWAV/30MonoT1.wav,2,1,4,13,,,,,0,4,4,12,0,9,9,9,,,,,,,,,2,2.552654937000625,,,115,001,2019_Sep_23_1011,MusicAffectPsychophysiology2019,3.0.5,60.02233431012211,
To what extent did the music make you feel ,ALERT,30MonoWAV/30MonoT1.wav,2,1,4,13,,,,,0,4,4,12,0,10,10,8,,,,,,,,,2,1.2691412000003766,,,115,001,2019_Sep_23_1011,MusicAffectPsychophysiology2019,3.0.5,60.02233431012211,
To what extent did the music make you feel ,SAD,30MonoWAV/30MonoT1.wav,2,1,4,13,,,,,0,4,4,12,0,11,11,0,,,,,,,,,3,1.5327710879992082,,,115,001,2019_Sep_23_1011,MusicAffectPsychophysiology2019,3.0.5,60.02233431012211,
,,30MonoWAV/30MonoT1.wav,2,1,4,13,,,,,0,4,4,12,,,,,,,,,,,,,,,,,115,001,2019_Sep_23_1011,MusicAffectPsychophysiology2019,3.0.5,60.02233431012211,
To what extent did the music make you feel ,FRUSTRATED,30MonoWAV/30MonoF3.wav,1,2,2,3,,,,,0,5,5,2,0,0,0,3,,,4,4.935644893999779,4,1.5855343750008615,4,1.0196882119998918,2,1.6189189689994237,,,115,001,2019_Sep_23_1011,MusicAffectPsychophysiology2019,3.0.5,60.02233431012211,
To what extent did the music make you feel ,GUILTY,30MonoWAV/30MonoF3.wav,1,2,2,3,,,,,0,5,5,2,0,1,1,5,,,,,,,,,1,1.217177313999855,,,115,001,2019_Sep_23_1011,MusicAffectPsychophysiology2019,3.0.5,60.02233431012211,
To what extent did the music make you feel ,ANXIOUS ,30MonoWAV/30MonoF3.wav,1,2,2,3,,,,,0,5,5,2,0,2,2,1,,,,,,,,,3,1.1358663409992005,,,115,001,2019_Sep_23_1011,MusicAffectPsychophysiology2019,3.0.5,60.02233431012211,
To what extent did the music make you feel ,HAPPY,30MonoWAV/30MonoF3.wav,1,2,2,3,,,,,0,5,5,2,0,3,3,6,,,,,,,,,2,1.7864388569996663,,,115,001,2019_Sep_23_1011,MusicAffectPsychophysiology2019,3.0.5,60.02233431012211,
To what extent did the music make you feel ,ANGRY,30MonoWAV/30MonoF3.wav,1,2,2,3,,,,,0,5,5,2,0,4,4,2,,,,,,,,,2,1.536379148999913,,,115,001,2019_Sep_23_1011,MusicAffectPsychophysiology2019,3.0.5,60.02233431012211,
To what extent did the music make you feel ,SAD,30MonoWAV/30MonoF3.wav,1,2,2,3,,,,,0,5,5,2,0,5,5,0,,,,,,,,,1,1.1020699509990664,,,115,001,2019_Sep_23_1011,MusicAffectPsychophysiology2019,3.0.5,60.02233431012211,
To what extent did the music make you feel ,ASHAMED,30MonoWAV/30MonoF3.wav,1,2,2,3,,,,,0,5,5,2,0,6,6,4,,,,,,,,,1,0.7837383229998522,,,115,001,2019_Sep_23_1011,MusicAffectPsychophysiology2019,3.0.5,60.02233431012211,
To what extent did the music make you feel ,ACTIVE,30MonoWAV/30MonoF3.wav,1,2,2,3,,,,,0,5,5,2,0,7,7,9,,,,,,,,,3,1.3862830199996097,,,115,001,2019_Sep_23_1011,MusicAffectPsychophysiology2019,3.0.5,60.02233431012211,
To what extent did the music make you feel ,ALERT,30MonoWAV/30MonoF3.wav,1,2,2,3,,,,,0,5,5,2,0,8,8,8,,,,,,,,,3,1.1518483029994968,,,115,001,2019_Sep_23_1011,MusicAffectPsychophysiology2019,3.0.5,60.02233431012211,
To what extent did the music make you feel ,EXCITED,30MonoWAV/30MonoF3.wav,1,2,2,3,,,,,0,5,5,2,0,9,9,7,,,,,,,,,3,1.0360458070008463,,,115,001,2019_Sep_23_1011,MusicAffectPsychophysiology2019,3.0.5,60.02233431012211,
To what extent did the music make you feel ,TENDER,30MonoWAV/30MonoF3.wav,1,2,2,3,,,,,0,5,5,2,0,10,10,10,,,,,,,,,2,1.4030476280004223,,,115,001,2019_Sep_23_1011,MusicAffectPsychophysiology2019,3.0.5,60.02233431012211,
To what extent did the music make you feel ,SCARED,30MonoWAV/30MonoF3.wav,1,2,2,3,,,,,0,5,5,2,0,11,11,11,,,,,,,,,1,0.9688505889989756,,,115,001,2019_Sep_23_1011,MusicAffectPsychophysiology2019,3.0.5,60.02233431012211,
,,30MonoWAV/30MonoF3.wav,1,2,2,3,,,,,0,5,5,2,,,,,,,,,,,,,,,,,115,001,2019_Sep_23_1011,MusicAffectPsychophysiology2019,3.0.5,60.02233431012211,
To what extent did the music make you feel ,SCARED,30MonoWAV/30MonoH4.wav,2,2,1,8,,,,,0,6,6,7,0,0,0,11,,,3,3.7180818440010626,3,1.65218636300051,3,1.3521509410002182,1,1.3700889790015935,,,115,001,2019_Sep_23_1011,MusicAffectPsychophysiology2019,3.0.5,60.02233431012211,
To what extent did the music make you feel ,HAPPY,30MonoWAV/30MonoH4.wav,2,2,1,8,,,,,0,6,6,7,0,1,1,6,,,,,,,,,3,1.2698550500008423,,,115,001,2019_Sep_23_1011,MusicAffectPsychophysiology2019,3.0.5,60.02233431012211,
To what extent did the music make you feel ,TENDER,30MonoWAV/30MonoH4.wav,2,2,1,8,,,,,0,6,6,7,0,2,2,10,,,,,,,,,3,1.2197401920002449,,,115,001,2019_Sep_23_1011,MusicAffectPsychophysiology2019,3.0.5,60.02233431012211,
To what extent did the music make you feel ,FRUSTRATED,30MonoWAV/30MonoH4.wav,2,2,1,8,,,,,0,6,6,7,0,3,3,3,,,,,,,,,2,1.3110891430005722,,,115,001,2019_Sep_23_1011,MusicAffectPsychophysiology2019,3.0.5,60.02233431012211,
To what extent did the music make you feel ,ACTIVE,30MonoWAV/30MonoH4.wav,2,2,1,8,,,,,0,6,6,7,0,4,4,9,,,,,,,,,4,1.4115037899991876,,,115,001,2019_Sep_23_1011,MusicAffectPsychophysiology2019,3.0.5,60.02233431012211,
To what extent did the music make you feel ,GUILTY,30MonoWAV/30MonoH4.wav,2,2,1,8,,,,,0,6,6,7,0,5,5,5,,,,,,,,,1,0.9083992109990504,,,115,001,2019_Sep_23_1011,MusicAffectPsychophysiology2019,3.0.5,60.02233431012211,
To what extent did the music make you feel ,ALERT,30MonoWAV/30MonoH4.wav,2,2,1,8,,,,,0,6,6,7,0,6,6,8,,,,,,,,,4,1.0853565919987886,,,115,001,2019_Sep_23_1011,MusicAffectPsychophysiology2019,3.0.5,60.02233431012211,
To what extent did the music make you feel ,SAD,30MonoWAV/30MonoH4.wav,2,2,1,8,,,,,0,6,6,7,0,7,7,0,,,,,,,,,1,1.2686312469995755,,,115,001,2019_Sep_23_1011,MusicAffectPsychophysiology2019,3.0.5,60.02233431012211,
To what extent did the music make you feel ,ANXIOUS ,30MonoWAV/30MonoH4.wav,2,2,1,8,,,,,0,6,6,7,0,8,8,1,,,,,,,,,2,2.0193271240004833,,,115,001,2019_Sep_23_1011,MusicAffectPsychophysiology2019,3.0.5,60.02233431012211,
To what extent did the music make you feel ,EXCITED,30MonoWAV/30MonoH4.wav,2,2,1,8,,,,,0,6,6,7,0,9,9,7,,,,,,,,,3,4.401456807001523,,,115,001,2019_Sep_23_1011,MusicAffectPsychophysiology2019,3.0.5,60.02233431012211,
To what extent did the music make you feel ,ASHAMED,30MonoWAV/30MonoH4.wav,2,2,1,8,,,,,0,6,6,7,0,10,10,4,,,,,,,,,1,1.10213956699954,,,115,001,2019_Sep_23_1011,MusicAffectPsychophysiology2019,3.0.5,60.02233431012211,
To what extent did the music make you feel ,ANGRY,30MonoWAV/30MonoH4.wav,2,2,1,8,,,,,0,6,6,7,0,11,11,2,,,,,,,,,1,1.086306330998923,,,115,001,2019_Sep_23_1011,MusicAffectPsychophysiology2019,3.0.5,60.02233431012211,
,,30MonoWAV/30MonoH4.wav,2,2,1,8,,,,,0,6,6,7,,,,,,,,,,,,,,,,,115,001,2019_Sep_23_1011,MusicAffectPsychophysiology2019,3.0.5,60.02233431012211,
To what extent did the music make you feel ,ALERT,30MonoWAV/30MonoF4.wav,1,2,2,4,,,,,0,7,7,3,0,0,0,8,,,2,3.3357000689993583,4,3.736112459000651,4,1.1665238109999336,4,1.237366467999891,,,115,001,2019_Sep_23_1011,MusicAffectPsychophysiology2019,3.0.5,60.02233431012211,
To what extent did the music make you feel ,ANGRY,30MonoWAV/30MonoF4.wav,1,2,2,4,,,,,0,7,7,3,0,1,1,2,,,,,,,,,1,1.6025666539990198,,,115,001,2019_Sep_23_1011,MusicAffectPsychophysiology2019,3.0.5,60.02233431012211,
To what extent did the music make you feel ,TENDER,30MonoWAV/30MonoF4.wav,1,2,2,4,,,,,0,7,7,3,0,2,2,10,,,,,,,,,2,2.6188037200008694,,,115,001,2019_Sep_23_1011,MusicAffectPsychophysiology2019,3.0.5,60.02233431012211,
To what extent did the music make you feel ,ANXIOUS ,30MonoWAV/30MonoF4.wav,1,2,2,4,,,,,0,7,7,3,0,3,3,1,,,,,,,,,4,2.5702731410001434,,,115,001,2019_Sep_23_1011,MusicAffectPsychophysiology2019,3.0.5,60.02233431012211,
To what extent did the music make you feel ,FRUSTRATED,30MonoWAV/30MonoF4.wav,1,2,2,4,,,,,0,7,7,3,0,4,4,3,,,,,,,,,1,0.9029394600001979,,,115,001,2019_Sep_23_1011,MusicAffectPsychophysiology2019,3.0.5,60.02233431012211,
To what extent did the music make you feel ,ASHAMED,30MonoWAV/30MonoF4.wav,1,2,2,4,,,,,0,7,7,3,0,5,5,4,,,,,,,,,1,0.9361382159986533,,,115,001,2019_Sep_23_1011,MusicAffectPsychophysiology2019,3.0.5,60.02233431012211,
To what extent did the music make you feel ,SCARED,30MonoWAV/30MonoF4.wav,1,2,2,4,,,,,0,7,7,3,0,6,6,11,,,,,,,,,2,2.1698571169999923,,,115,001,2019_Sep_23_1011,MusicAffectPsychophysiology2019,3.0.5,60.02233431012211,
To what extent did the music make you feel ,EXCITED,30MonoWAV/30MonoF4.wav,1,2,2,4,,,,,0,7,7,3,0,7,7,7,,,,,,,,,4,2.4342206359997363,,,115,001,2019_Sep_23_1011,MusicAffectPsychophysiology2019,3.0.5,60.02233431012211,
To what extent did the music make you feel ,HAPPY,30MonoWAV/30MonoF4.wav,1,2,2,4,,,,,0,7,7,3,0,8,8,6,,,,,,,,,3,1.016828624999107,,,115,001,2019_Sep_23_1011,MusicAffectPsychophysiology2019,3.0.5,60.02233431012211,
To what extent did the music make you feel ,ACTIVE,30MonoWAV/30MonoF4.wav,1,2,2,4,,,,,0,7,7,3,0,9,9,9,,,,,,,,,3,1.352221785000438,,,115,001,2019_Sep_23_1011,MusicAffectPsychophysiology2019,3.0.5,60.02233431012211,
To what extent did the music make you feel ,SAD,30MonoWAV/30MonoF4.wav,1,2,2,4,,,,,0,7,7,3,0,10,10,0,,,,,,,,,1,0.7362179899992043,,,115,001,2019_Sep_23_1011,MusicAffectPsychophysiology2019,3.0.5,60.02233431012211,
To what extent did the music make you feel ,GUILTY,30MonoWAV/30MonoF4.wav,1,2,2,4,,,,,0,7,7,3,0,11,11,5,,,,,,,,,1,1.8690972660006082,,,115,001,2019_Sep_23_1011,MusicAffectPsychophysiology2019,3.0.5,60.02233431012211,
,,30MonoWAV/30MonoF4.wav,1,2,2,4,,,,,0,7,7,3,,,,,,,,,,,,,,,,,115,001,2019_Sep_23_1011,MusicAffectPsychophysiology2019,3.0.5,60.02233431012211,
To what extent did the music make you feel ,GUILTY,30MonoWAV/30MonoS4.wav,1,1,3,12,,,,,0,8,8,11,0,0,0,5,,,2,3.802249151000069,2,1.4037288910003554,2,1.0667233130006935,1,2.8357899809998344,,,115,001,2019_Sep_23_1011,MusicAffectPsychophysiology2019,3.0.5,60.02233431012211,
To what extent did the music make you feel ,EXCITED,30MonoWAV/30MonoS4.wav,1,1,3,12,,,,,0,8,8,11,0,1,1,7,,,,,,,,,1,0.9873219350010913,,,115,001,2019_Sep_23_1011,MusicAffectPsychophysiology2019,3.0.5,60.02233431012211,
To what extent did the music make you feel ,HAPPY,30MonoWAV/30MonoS4.wav,1,1,3,12,,,,,0,8,8,11,0,2,2,6,,,,,,,,,1,0.6535171499999706,,,115,001,2019_Sep_23_1011,MusicAffectPsychophysiology2019,3.0.5,60.02233431012211,
To what extent did the music make you feel ,ASHAMED,30MonoWAV/30MonoS4.wav,1,1,3,12,,,,,0,8,8,11,0,3,3,4,,,,,,,,,1,1.1863723330006906,,,115,001,2019_Sep_23_1011,MusicAffectPsychophysiology2019,3.0.5,60.02233431012211,
To what extent did the music make you feel ,ACTIVE,30MonoWAV/30MonoS4.wav,1,1,3,12,,,,,0,8,8,11,0,4,4,9,,,,,,,,,1,0.735309726000196,,,115,001,2019_Sep_23_1011,MusicAffectPsychophysiology2019,3.0.5,60.02233431012211,
To what extent did the music make you feel ,ANXIOUS ,30MonoWAV/30MonoS4.wav,1,1,3,12,,,,,0,8,8,11,0,5,5,1,,,,,,,,,1,1.7014109190004092,,,115,001,2019_Sep_23_1011,MusicAffectPsychophysiology2019,3.0.5,60.02233431012211,
To what extent did the music make you feel ,SCARED,30MonoWAV/30MonoS4.wav,1,1,3,12,,,,,0,8,8,11,0,6,6,11,,,,,,,,,1,1.0532951909990516,,,115,001,2019_Sep_23_1011,MusicAffectPsychophysiology2019,3.0.5,60.02233431012211,
To what extent did the music make you feel ,ANGRY,30MonoWAV/30MonoS4.wav,1,1,3,12,,,,,0,8,8,11,0,7,7,2,,,,,,,,,1,1.0692097789997206,,,115,001,2019_Sep_23_1011,MusicAffectPsychophysiology2019,3.0.5,60.02233431012211,
To what extent did the music make you feel ,TENDER,30MonoWAV/30MonoS4.wav,1,1,3,12,,,,,0,8,8,11,0,8,8,10,,,,,,,,,1,1.419702971001243,,,115,001,2019_Sep_23_1011,MusicAffectPsychophysiology2019,3.0.5,60.02233431012211,
To what extent did the music make you feel ,FRUSTRATED,30MonoWAV/30MonoS4.wav,1,1,3,12,,,,,0,8,8,11,0,9,9,3,,,,,,,,,1,1.2808615520007152,,,115,001,2019_Sep_23_1011,MusicAffectPsychophysiology2019,3.0.5,60.02233431012211,
To what extent did the music make you feel ,SAD,30MonoWAV/30MonoS4.wav,1,1,3,12,,,,,0,8,8,11,0,10,10,0,,,,,,,,,3,1.9021399520006526,,,115,001,2019_Sep_23_1011,MusicAffectPsychophysiology2019,3.0.5,60.02233431012211,
To what extent did the music make you feel ,ALERT,30MonoWAV/30MonoS4.wav,1,1,3,12,,,,,0,8,8,11,0,11,11,8,,,,,,,,,2,1.3689386839996587,,,115,001,2019_Sep_23_1011,MusicAffectPsychophysiology2019,3.0.5,60.02233431012211,
,,30MonoWAV/30MonoS4.wav,1,1,3,12,,,,,0,8,8,11,,,,,,,,,,,,,,,,,115,001,2019_Sep_23_1011,MusicAffectPsychophysiology2019,3.0.5,60.02233431012211,
To what extent did the music make you feel ,SAD,30MonoWAV/30MonoF2.wav,1,2,2,2,,,,,0,9,9,1,0,0,0,0,,,4,2.6694276289999834,4,0.9865217880014825,3,2.7355279410003277,1,2.2530350130000443,,,115,001,2019_Sep_23_1011,MusicAffectPsychophysiology2019,3.0.5,60.02233431012211,
To what extent did the music make you feel ,FRUSTRATED,30MonoWAV/30MonoF2.wav,1,2,2,2,,,,,0,9,9,1,0,1,1,3,,,,,,,,,2,1.6192718239999522,,,115,001,2019_Sep_23_1011,MusicAffectPsychophysiology2019,3.0.5,60.02233431012211,
To what extent did the music make you feel ,SCARED,30MonoWAV/30MonoF2.wav,1,2,2,2,,,,,0,9,9,1,0,2,2,11,,,,,,,,,4,2.752263624999614,,,115,001,2019_Sep_23_1011,MusicAffectPsychophysiology2019,3.0.5,60.02233431012211,
To what extent did the music make you feel ,HAPPY,30MonoWAV/30MonoF2.wav,1,2,2,2,,,,,0,9,9,1,0,3,3,6,,,,,,,,,2,2.4511748919994716,,,115,001,2019_Sep_23_1011,MusicAffectPsychophysiology2019,3.0.5,60.02233431012211,
To what extent did the music make you feel ,ASHAMED,30MonoWAV/30MonoF2.wav,1,2,2,2,,,,,0,9,9,1,0,4,4,4,,,,,,,,,1,1.0512484759983636,,,115,001,2019_Sep_23_1011,MusicAffectPsychophysiology2019,3.0.5,60.02233431012211,
To what extent did the music make you feel ,EXCITED,30MonoWAV/30MonoF2.wav,1,2,2,2,,,,,0,9,9,1,0,5,5,7,,,,,,,,,4,2.1713588790007634,,,115,001,2019_Sep_23_1011,MusicAffectPsychophysiology2019,3.0.5,60.02233431012211,
To what extent did the music make you feel ,ANXIOUS ,30MonoWAV/30MonoF2.wav,1,2,2,2,,,,,0,9,9,1,0,6,6,1,,,,,,,,,3,2.067996249001226,,,115,001,2019_Sep_23_1011,MusicAffectPsychophysiology2019,3.0.5,60.02233431012211,
To what extent did the music make you feel ,ACTIVE,30MonoWAV/30MonoF2.wav,1,2,2,2,,,,,0,9,9,1,0,7,7,9,,,,,,,,,3,2.3865652490003413,,,115,001,2019_Sep_23_1011,MusicAffectPsychophysiology2019,3.0.5,60.02233431012211,
To what extent did the music make you feel ,ALERT,30MonoWAV/30MonoF2.wav,1,2,2,2,,,,,0,9,9,1,0,8,8,8,,,,,,,,,3,1.4524051919997873,,,115,001,2019_Sep_23_1011,MusicAffectPsychophysiology2019,3.0.5,60.02233431012211,
To what extent did the music make you feel ,ANGRY,30MonoWAV/30MonoF2.wav,1,2,2,2,,,,,0,9,9,1,0,9,9,2,,,,,,,,,2,1.7179825279999932,,,115,001,2019_Sep_23_1011,MusicAffectPsychophysiology2019,3.0.5,60.02233431012211,
To what extent did the music make you feel ,GUILTY,30MonoWAV/30MonoF2.wav,1,2,2,2,,,,,0,9,9,1,0,10,10,5,,,,,,,,,1,1.3188566400003765,,,115,001,2019_Sep_23_1011,MusicAffectPsychophysiology2019,3.0.5,60.02233431012211,
To what extent did the music make you feel ,TENDER,30MonoWAV/30MonoF2.wav,1,2,2,2,,,,,0,9,9,1,0,11,11,10,,,,,,,,,2,0.8865976850011066,,,115,001,2019_Sep_23_1011,MusicAffectPsychophysiology2019,3.0.5,60.02233431012211,
,,30MonoWAV/30MonoF2.wav,1,2,2,2,,,,,0,9,9,1,,,,,,,,,,,,,,,,,115,001,2019_Sep_23_1011,MusicAffectPsychophysiology2019,3.0.5,60.02233431012211,
To what extent did the music make you feel ,EXCITED,30MonoWAV/30MonoH2.wav,2,2,1,6,,,,,0,10,10,5,0,0,0,7,,,5,2.6522105659987574,5,0.9360830980003811,5,0.9525993899987952,5,2.3526691120005125,,,115,001,2019_Sep_23_1011,MusicAffectPsychophysiology2019,3.0.5,60.02233431012211,
To what extent did the music make you feel ,GUILTY,30MonoWAV/30MonoH2.wav,2,2,1,6,,,,,0,10,10,5,0,1,1,5,,,,,,,,,2,1.1519091450009,,,115,001,2019_Sep_23_1011,MusicAffectPsychophysiology2019,3.0.5,60.02233431012211,
To what extent did the music make you feel ,FRUSTRATED,30MonoWAV/30MonoH2.wav,2,2,1,6,,,,,0,10,10,5,0,2,2,3,,,,,,,,,2,1.1484288160008873,,,115,001,2019_Sep_23_1011,MusicAffectPsychophysiology2019,3.0.5,60.02233431012211,
To what extent did the music make you feel ,SAD,30MonoWAV/30MonoH2.wav,2,2,1,6,,,,,0,10,10,5,0,3,3,0,,,,,,,,,1,2.9023884260004706,,,115,001,2019_Sep_23_1011,MusicAffectPsychophysiology2019,3.0.5,60.02233431012211,
To what extent did the music make you feel ,ALERT,30MonoWAV/30MonoH2.wav,2,2,1,6,,,,,0,10,10,5,0,4,4,8,,,,,,,,,4,1.869451497999762,,,115,001,2019_Sep_23_1011,MusicAffectPsychophysiology2019,3.0.5,60.02233431012211,
To what extent did the music make you feel ,ACTIVE,30MonoWAV/30MonoH2.wav,2,2,1,6,,,,,0,10,10,5,0,5,5,9,,,,,,,,,4,1.0194099800010008,,,115,001,2019_Sep_23_1011,MusicAffectPsychophysiology2019,3.0.5,60.02233431012211,
To what extent did the music make you feel ,ANXIOUS ,30MonoWAV/30MonoH2.wav,2,2,1,6,,,,,0,10,10,5,0,6,6,1,,,,,,,,,2,1.3035446680005407,,,115,001,2019_Sep_23_1011,MusicAffectPsychophysiology2019,3.0.5,60.02233431012211,
To what extent did the music make you feel ,ASHAMED,30MonoWAV/30MonoH2.wav,2,2,1,6,,,,,0,10,10,5,0,7,7,4,,,,,,,,,1,1.5689366860005975,,,115,001,2019_Sep_23_1011,MusicAffectPsychophysiology2019,3.0.5,60.02233431012211,
To what extent did the music make you feel ,HAPPY,30MonoWAV/30MonoH2.wav,2,2,1,6,,,,,0,10,10,5,0,8,8,6,,,,,,,,,3,1.150937762000467,,,115,001,2019_Sep_23_1011,MusicAffectPsychophysiology2019,3.0.5,60.02233431012211,
To what extent did the music make you feel ,ANGRY,30MonoWAV/30MonoH2.wav,2,2,1,6,,,,,0,10,10,5,0,9,9,2,,,,,,,,,2,1.2692357649993937,,,115,001,2019_Sep_23_1011,MusicAffectPsychophysiology2019,3.0.5,60.02233431012211,
To what extent did the music make you feel ,TENDER,30MonoWAV/30MonoH2.wav,2,2,1,6,,,,,0,10,10,5,0,10,10,10,,,,,,,,,2,1.2670054199988954,,,115,001,2019_Sep_23_1011,MusicAffectPsychophysiology2019,3.0.5,60.02233431012211,
To what extent did the music make you feel ,SCARED,30MonoWAV/30MonoH2.wav,2,2,1,6,,,,,0,10,10,5,0,11,11,11,,,,,,,,,2,1.1190646389986796,,,115,001,2019_Sep_23_1011,MusicAffectPsychophysiology2019,3.0.5,60.02233431012211,
,,30MonoWAV/30MonoH2.wav,2,2,1,6,,,,,0,10,10,5,,,,,,,,,,,,,,,,,115,001,2019_Sep_23_1011,MusicAffectPsychophysiology2019,3.0.5,60.02233431012211,
To what extent did the music make you feel ,TENDER,30MonoWAV/30MonoT2.wav,2,1,4,14,,,,,0,11,11,13,0,0,0,10,,,1,3.3520491660001426,2,1.419127789000413,2,1.6687687979992916,2,1.0911449790000916,,,115,001,2019_Sep_23_1011,MusicAffectPsychophysiology2019,3.0.5,60.02233431012211,
To what extent did the music make you feel ,HAPPY,30MonoWAV/30MonoT2.wav,2,1,4,14,,,,,0,11,11,13,0,1,1,6,,,,,,,,,2,0.9502182710002671,,,115,001,2019_Sep_23_1011,MusicAffectPsychophysiology2019,3.0.5,60.02233431012211,
To what extent did the music make you feel ,ANXIOUS ,30MonoWAV/30MonoT2.wav,2,1,4,14,,,,,0,11,11,13,0,2,2,1,,,,,,,,,1,0.8171496769991791,,,115,001,2019_Sep_23_1011,MusicAffectPsychophysiology2019,3.0.5,60.02233431012211,
To what extent did the music make you feel ,SCARED,30MonoWAV/30MonoT2.wav,2,1,4,14,,,,,0,11,11,13,0,3,3,11,,,,,,,,,2,0.8021338600010495,,,115,001,2019_Sep_23_1011,MusicAffectPsychophysiology2019,3.0.5,60.02233431012211,
To what extent did the music make you feel ,ASHAMED,30MonoWAV/30MonoT2.wav,2,1,4,14,,,,,0,11,11,13,0,4,4,4,,,,,,,,,2,3.950588825999148,,,115,001,2019_Sep_23_1011,MusicAffectPsychophysiology2019,3.0.5,60.02233431012211,
To what extent did the music make you feel ,FRUSTRATED,30MonoWAV/30MonoT2.wav,2,1,4,14,,,,,0,11,11,13,0,5,5,3,,,,,,,,,2,0.901731194999229,,,115,001,2019_Sep_23_1011,MusicAffectPsychophysiology2019,3.0.5,60.02233431012211,
To what extent did the music make you feel ,GUILTY,30MonoWAV/30MonoT2.wav,2,1,4,14,,,,,0,11,11,13,0,6,6,5,,,,,,,,,1,1.3526385860004666,,,115,001,2019_Sep_23_1011,MusicAffectPsychophysiology2019,3.0.5,60.02233431012211,
To what extent did the music make you feel ,ALERT,30MonoWAV/30MonoT2.wav,2,1,4,14,,,,,0,11,11,13,0,7,7,8,,,,,,,,,1,1.0528533369997604,,,115,001,2019_Sep_23_1011,MusicAffectPsychophysiology2019,3.0.5,60.02233431012211,
To what extent did the music make you feel ,ACTIVE,30MonoWAV/30MonoT2.wav,2,1,4,14,,,,,0,11,11,13,0,8,8,9,,,,,,,,,1,0.6853539550011192,,,115,001,2019_Sep_23_1011,MusicAffectPsychophysiology2019,3.0.5,60.02233431012211,
To what extent did the music make you feel ,SAD,30MonoWAV/30MonoT2.wav,2,1,4,14,,,,,0,11,11,13,0,9,9,0,,,,,,,,,2,1.419472740000856,,,115,001,2019_Sep_23_1011,MusicAffectPsychophysiology2019,3.0.5,60.02233431012211,
To what extent did the music make you feel ,EXCITED,30MonoWAV/30MonoT2.wav,2,1,4,14,,,,,0,11,11,13,0,10,10,7,,,,,,,,,1,1.590613697999288,,,115,001,2019_Sep_23_1011,MusicAffectPsychophysiology2019,3.0.5,60.02233431012211,
To what extent did the music make you feel ,ANGRY,30MonoWAV/30MonoT2.wav,2,1,4,14,,,,,0,11,11,13,0,11,11,2,,,,,,,,,2,3.569667419000325,,,115,001,2019_Sep_23_1011,MusicAffectPsychophysiology2019,3.0.5,60.02233431012211,
,,30MonoWAV/30MonoT2.wav,2,1,4,14,,,,,0,11,11,13,,,,,,,,,,,,,,,,,115,001,2019_Sep_23_1011,MusicAffectPsychophysiology2019,3.0.5,60.02233431012211,
To what extent did the music make you feel ,ASHAMED,30MonoWAV/30MonoH3.wav,2,2,1,7,,,,,0,12,12,6,0,0,0,4,,,4,2.4692089050004142,4,1.3203897799994593,4,1.3179312859992933,1,1.618980194998585,,,115,001,2019_Sep_23_1011,MusicAffectPsychophysiology2019,3.0.5,60.02233431012211,
To what extent did the music make you feel ,ACTIVE,30MonoWAV/30MonoH3.wav,2,2,1,7,,,,,0,12,12,6,0,1,1,9,,,,,,,,,4,1.3351165439999022,,,115,001,2019_Sep_23_1011,MusicAffectPsychophysiology2019,3.0.5,60.02233431012211,
To what extent did the music make you feel ,TENDER,30MonoWAV/30MonoH3.wav,2,2,1,7,,,,,0,12,12,6,0,2,2,10,,,,,,,,,2,1.0356789669986028,,,115,001,2019_Sep_23_1011,MusicAffectPsychophysiology2019,3.0.5,60.02233431012211,
To what extent did the music make you feel ,ANGRY,30MonoWAV/30MonoH3.wav,2,2,1,7,,,,,0,12,12,6,0,3,3,2,,,,,,,,,1,1.5510081590000482,,,115,001,2019_Sep_23_1011,MusicAffectPsychophysiology2019,3.0.5,60.02233431012211,
To what extent did the music make you feel ,FRUSTRATED,30MonoWAV/30MonoH3.wav,2,2,1,7,,,,,0,12,12,6,0,4,4,3,,,,,,,,,1,0.8872258970004623,,,115,001,2019_Sep_23_1011,MusicAffectPsychophysiology2019,3.0.5,60.02233431012211,
To what extent did the music make you feel ,ALERT,30MonoWAV/30MonoH3.wav,2,2,1,7,,,,,0,12,12,6,0,5,5,8,,,,,,,,,3,1.1357789899993804,,,115,001,2019_Sep_23_1011,MusicAffectPsychophysiology2019,3.0.5,60.02233431012211,
To what extent did the music make you feel ,SAD,30MonoWAV/30MonoH3.wav,2,2,1,7,,,,,0,12,12,6,0,6,6,0,,,,,,,,,1,1.3352266700003383,,,115,001,2019_Sep_23_1011,MusicAffectPsychophysiology2019,3.0.5,60.02233431012211,
To what extent did the music make you feel ,HAPPY,30MonoWAV/30MonoH3.wav,2,2,1,7,,,,,0,12,12,6,0,7,7,6,,,,,,,,,5,1.335386788001415,,,115,001,2019_Sep_23_1011,MusicAffectPsychophysiology2019,3.0.5,60.02233431012211,
To what extent did the music make you feel ,GUILTY,30MonoWAV/30MonoH3.wav,2,2,1,7,,,,,0,12,12,6,0,8,8,5,,,,,,,,,1,0.8361796469998808,,,115,001,2019_Sep_23_1011,MusicAffectPsychophysiology2019,3.0.5,60.02233431012211,
To what extent did the music make you feel ,SCARED,30MonoWAV/30MonoH3.wav,2,2,1,7,,,,,0,12,12,6,0,9,9,11,,,,,,,,,1,1.7025130029996944,,,115,001,2019_Sep_23_1011,MusicAffectPsychophysiology2019,3.0.5,60.02233431012211,
To what extent did the music make you feel ,ANXIOUS ,30MonoWAV/30MonoH3.wav,2,2,1,7,,,,,0,12,12,6,0,10,10,1,,,,,,,,,3,1.1026092909996805,,,115,001,2019_Sep_23_1011,MusicAffectPsychophysiology2019,3.0.5,60.02233431012211,
To what extent did the music make you feel ,EXCITED,30MonoWAV/30MonoH3.wav,2,2,1,7,,,,,0,12,12,6,0,11,11,7,,,,,,,,,4,1.4850865540011,,,115,001,2019_Sep_23_1011,MusicAffectPsychophysiology2019,3.0.5,60.02233431012211,
,,30MonoWAV/30MonoH3.wav,2,2,1,7,,,,,0,12,12,6,,,,,,,,,,,,,,,,,115,001,2019_Sep_23_1011,MusicAffectPsychophysiology2019,3.0.5,60.02233431012211,
To what extent did the music make you feel ,GUILTY,30MonoWAV/30MonoT4.wav,2,1,4,16,,,,,0,13,13,15,0,0,0,5,,,1,3.3169437140004447,1,0.9193391999997402,2,1.0340493439998681,1,1.7129647110014048,,,115,001,2019_Sep_23_1011,MusicAffectPsychophysiology2019,3.0.5,60.02233431012211,
To what extent did the music make you feel ,ASHAMED,30MonoWAV/30MonoT4.wav,2,1,4,16,,,,,0,13,13,15,0,1,1,4,,,,,,,,,1,0.5961543089997576,,,115,001,2019_Sep_23_1011,MusicAffectPsychophysiology2019,3.0.5,60.02233431012211,
To what extent did the music make you feel ,EXCITED,30MonoWAV/30MonoT4.wav,2,1,4,16,,,,,0,13,13,15,0,2,2,7,,,,,,,,,1,1.2353992989992548,,,115,001,2019_Sep_23_1011,MusicAffectPsychophysiology2019,3.0.5,60.02233431012211,
To what extent did the music make you feel ,SAD,30MonoWAV/30MonoT4.wav,2,1,4,16,,,,,0,13,13,15,0,3,3,0,,,,,,,,,2,1.4527205909998884,,,115,001,2019_Sep_23_1011,MusicAffectPsychophysiology2019,3.0.5,60.02233431012211,
To what extent did the music make you feel ,ANXIOUS ,30MonoWAV/30MonoT4.wav,2,1,4,16,,,,,0,13,13,15,0,4,4,1,,,,,,,,,3,2.586799020999024,,,115,001,2019_Sep_23_1011,MusicAffectPsychophysiology2019,3.0.5,60.02233431012211,
To what extent did the music make you feel ,ANGRY,30MonoWAV/30MonoT4.wav,2,1,4,16,,,,,0,13,13,15,0,5,5,2,,,,,,,,,2,1.9665214720007498,,,115,001,2019_Sep_23_1011,MusicAffectPsychophysiology2019,3.0.5,60.02233431012211,
To what extent did the music make you feel ,FRUSTRATED,30MonoWAV/30MonoT4.wav,2,1,4,16,,,,,0,13,13,15,0,6,6,3,,,,,,,,,3,1.2862023939997016,,,115,001,2019_Sep_23_1011,MusicAffectPsychophysiology2019,3.0.5,60.02233431012211,
To what extent did the music make you feel ,ACTIVE,30MonoWAV/30MonoT4.wav,2,1,4,16,,,,,0,13,13,15,0,7,7,9,,,,,,,,,1,0.9857572479995724,,,115,001,2019_Sep_23_1011,MusicAffectPsychophysiology2019,3.0.5,60.02233431012211,
To what extent did the music make you feel ,TENDER,30MonoWAV/30MonoT4.wav,2,1,4,16,,,,,0,13,13,15,0,8,8,10,,,,,,,,,2,0.8843793409996579,,,115,001,2019_Sep_23_1011,MusicAffectPsychophysiology2019,3.0.5,60.02233431012211,
To what extent did the music make you feel ,HAPPY,30MonoWAV/30MonoT4.wav,2,1,4,16,,,,,0,13,13,15,0,9,9,6,,,,,,,,,1,2.4189469249995454,,,115,001,2019_Sep_23_1011,MusicAffectPsychophysiology2019,3.0.5,60.02233431012211,
To what extent did the music make you feel ,ALERT,30MonoWAV/30MonoT4.wav,2,1,4,16,,,,,0,13,13,15,0,10,10,8,,,,,,,,,2,1.168839003001267,,,115,001,2019_Sep_23_1011,MusicAffectPsychophysiology2019,3.0.5,60.02233431012211,
To what extent did the music make you feel ,SCARED,30MonoWAV/30MonoT4.wav,2,1,4,16,,,,,0,13,13,15,0,11,11,11,,,,,,,,,1,1.1704142359994876,,,115,001,2019_Sep_23_1011,MusicAffectPsychophysiology2019,3.0.5,60.02233431012211,
,,30MonoWAV/30MonoT4.wav,2,1,4,16,,,,,0,13,13,15,,,,,,,,,,,,,,,,,115,001,2019_Sep_23_1011,MusicAffectPsychophysiology2019,3.0.5,60.02233431012211,
To what extent did the music make you feel ,ANXIOUS ,30MonoWAV/30MonoF1.wav,1,2,2,1,,,,,0,14,14,0,0,0,0,1,,,1,2.2182576619998144,1,2.553358555000159,3,0.5533270169999014,3,1.0719581449993711,,,115,001,2019_Sep_23_1011,MusicAffectPsychophysiology2019,3.0.5,60.02233431012211,
To what extent did the music make you feel ,SAD,30MonoWAV/30MonoF1.wav,1,2,2,1,,,,,0,14,14,0,0,1,1,0,,,,,,,,,1,1.9018184529995779,,,115,001,2019_Sep_23_1011,MusicAffectPsychophysiology2019,3.0.5,60.02233431012211,
To what extent did the music make you feel ,ACTIVE,30MonoWAV/30MonoF1.wav,1,2,2,1,,,,,0,14,14,0,0,2,2,9,,,,,,,,,2,1.2196191269995325,,,115,001,2019_Sep_23_1011,MusicAffectPsychophysiology2019,3.0.5,60.02233431012211,
To what extent did the music make you feel ,TENDER,30MonoWAV/30MonoF1.wav,1,2,2,1,,,,,0,14,14,0,0,3,3,10,,,,,,,,,1,0.9194751770010043,,,115,001,2019_Sep_23_1011,MusicAffectPsychophysiology2019,3.0.5,60.02233431012211,
To what extent did the music make you feel ,EXCITED,30MonoWAV/30MonoF1.wav,1,2,2,1,,,,,0,14,14,0,0,4,4,7,,,,,,,,,3,1.9363776610007335,,,115,001,2019_Sep_23_1011,MusicAffectPsychophysiology2019,3.0.5,60.02233431012211,
To what extent did the music make you feel ,HAPPY,30MonoWAV/30MonoF1.wav,1,2,2,1,,,,,0,14,14,0,0,5,5,6,,,,,,,,,2,2.3359984750004514,,,115,001,2019_Sep_23_1011,MusicAffectPsychophysiology2019,3.0.5,60.02233431012211,
To what extent did the music make you feel ,ANGRY,30MonoWAV/30MonoF1.wav,1,2,2,1,,,,,0,14,14,0,0,6,6,2,,,,,,,,,2,0.7859408750009607,,,115,001,2019_Sep_23_1011,MusicAffectPsychophysiology2019,3.0.5,60.02233431012211,
To what extent did the music make you feel ,SCARED,30MonoWAV/30MonoF1.wav,1,2,2,1,,,,,0,14,14,0,0,7,7,11,,,,,,,,,2,1.4355285839992575,,,115,001,2019_Sep_23_1011,MusicAffectPsychophysiology2019,3.0.5,60.02233431012211,
To what extent did the music make you feel ,GUILTY,30MonoWAV/30MonoF1.wav,1,2,2,1,,,,,0,14,14,0,0,8,8,5,,,,,,,,,2,1.753341047999129,,,115,001,2019_Sep_23_1011,MusicAffectPsychophysiology2019,3.0.5,60.02233431012211,
To what extent did the music make you feel ,FRUSTRATED,30MonoWAV/30MonoF1.wav,1,2,2,1,,,,,0,14,14,0,0,9,9,3,,,,,,,,,2,1.3207531530006236,,,115,001,2019_Sep_23_1011,MusicAffectPsychophysiology2019,3.0.5,60.02233431012211,
To what extent did the music make you feel ,ALERT,30MonoWAV/30MonoF1.wav,1,2,2,1,,,,,0,14,14,0,0,10,10,8,,,,,,,,,2,1.6683842219990765,,,115,001,2019_Sep_23_1011,MusicAffectPsychophysiology2019,3.0.5,60.02233431012211,
To what extent did the music make you feel ,ASHAMED,30MonoWAV/30MonoF1.wav,1,2,2,1,,,,,0,14,14,0,0,11,11,4,,,,,,,,,1,1.5873312950006948,,,115,001,2019_Sep_23_1011,MusicAffectPsychophysiology2019,3.0.5,60.02233431012211,
,,30MonoWAV/30MonoF1.wav,1,2,2,1,,,,,0,14,14,0,,,,,,,,,,,,,,,,,115,001,2019_Sep_23_1011,MusicAffectPsychophysiology2019,3.0.5,60.02233431012211,
To what extent did the music make you feel ,ALERT,30MonoWAV/30MonoS3.wav,1,1,3,11,,,,,0,15,15,10,0,0,0,8,,,2,2.336638372999005,2,0.10220506299992849,3,1.9194974269994418,2,1.0364692300008755,,,115,001,2019_Sep_23_1011,MusicAffectPsychophysiology2019,3.0.5,60.02233431012211,
To what extent did the music make you feel ,EXCITED,30MonoWAV/30MonoS3.wav,1,1,3,11,,,,,0,15,15,10,0,1,1,7,,,,,,,,,2,0.7533169500002259,,,115,001,2019_Sep_23_1011,MusicAffectPsychophysiology2019,3.0.5,60.02233431012211,
To what extent did the music make you feel ,ANXIOUS ,30MonoWAV/30MonoS3.wav,1,1,3,11,,,,,0,15,15,10,0,2,2,1,,,,,,,,,2,1.0832771730001696,,,115,001,2019_Sep_23_1011,MusicAffectPsychophysiology2019,3.0.5,60.02233431012211,
To what extent did the music make you feel ,GUILTY,30MonoWAV/30MonoS3.wav,1,1,3,11,,,,,0,15,15,10,0,3,3,5,,,,,,,,,3,1.3009757769996213,,,115,001,2019_Sep_23_1011,MusicAffectPsychophysiology2019,3.0.5,60.02233431012211,
To what extent did the music make you feel ,SAD,30MonoWAV/30MonoS3.wav,1,1,3,11,,,,,0,15,15,10,0,4,4,0,,,,,,,,,3,0.8502947689994471,,,115,001,2019_Sep_23_1011,MusicAffectPsychophysiology2019,3.0.5,60.02233431012211,
To what extent did the music make you feel ,TENDER,30MonoWAV/30MonoS3.wav,1,1,3,11,,,,,0,15,15,10,0,5,5,10,,,,,,,,,2,0.7701700310008164,,,115,001,2019_Sep_23_1011,MusicAffectPsychophysiology2019,3.0.5,60.02233431012211,
To what extent did the music make you feel ,HAPPY,30MonoWAV/30MonoS3.wav,1,1,3,11,,,,,0,15,15,10,0,6,6,6,,,,,,,,,2,0.7030439930003922,,,115,001,2019_Sep_23_1011,MusicAffectPsychophysiology2019,3.0.5,60.02233431012211,
To what extent did the music make you feel ,ANGRY,30MonoWAV/30MonoS3.wav,1,1,3,11,,,,,0,15,15,10,0,7,7,2,,,,,,,,,2,1.436708039000223,,,115,001,2019_Sep_23_1011,MusicAffectPsychophysiology2019,3.0.5,60.02233431012211,
To what extent did the music make you feel ,FRUSTRATED,30MonoWAV/30MonoS3.wav,1,1,3,11,,,,,0,15,15,10,0,8,8,3,,,,,,,,,3,0.9027844490010466,,,115,001,2019_Sep_23_1011,MusicAffectPsychophysiology2019,3.0.5,60.02233431012211,
To what extent did the music make you feel ,ASHAMED,30MonoWAV/30MonoS3.wav,1,1,3,11,,,,,0,15,15,10,0,9,9,4,,,,,,,,,2,1.2029246780002723,,,115,001,2019_Sep_23_1011,MusicAffectPsychophysiology2019,3.0.5,60.02233431012211,
To what extent did the music make you feel ,ACTIVE,30MonoWAV/30MonoS3.wav,1,1,3,11,,,,,0,15,15,10,0,10,10,9,,,,,,,,,1,1.035953183998572,,,115,001,2019_Sep_23_1011,MusicAffectPsychophysiology2019,3.0.5,60.02233431012211,
To what extent did the music make you feel ,SCARED,30MonoWAV/30MonoS3.wav,1,1,3,11,,,,,0,15,15,10,0,11,11,11,,,,,,,,,1,1.04953777099945,,,115,001,2019_Sep_23_1011,MusicAffectPsychophysiology2019,3.0.5,60.02233431012211,
,,30MonoWAV/30MonoS3.wav,1,1,3,11,,,,,0,15,15,10,,,,,,,,,,,,,,,,,115,001,2019_Sep_23_1011,MusicAffectPsychophysiology2019,3.0.5,60.02233431012211,
To what extent did the music make you feel ,ASHAMED,30MonoWAV/30MonoF3.wav,1,2,2,3,,,,,1,0,16,2,0,0,0,4,,,3,3.5692685060002987,2,4.149059676001343,4,0.8190595739997661,1,2.0090500520000205,,,115,001,2019_Sep_23_1011,MusicAffectPsychophysiology2019,3.0.5,60.02233431012211,
To what extent did the music make you feel ,ALERT,30MonoWAV/30MonoF3.wav,1,2,2,3,,,,,1,0,16,2,0,1,1,8,,,,,,,,,2,1.1187854500003596,,,115,001,2019_Sep_23_1011,MusicAffectPsychophysiology2019,3.0.5,60.02233431012211,
To what extent did the music make you feel ,SAD,30MonoWAV/30MonoF3.wav,1,2,2,3,,,,,1,0,16,2,0,2,2,0,,,,,,,,,2,0.8357257959996787,,,115,001,2019_Sep_23_1011,MusicAffectPsychophysiology2019,3.0.5,60.02233431012211,
To what extent did the music make you feel ,ANXIOUS ,30MonoWAV/30MonoF3.wav,1,2,2,3,,,,,1,0,16,2,0,3,3,1,,,,,,,,,3,0.7855089489985403,,,115,001,2019_Sep_23_1011,MusicAffectPsychophysiology2019,3.0.5,60.02233431012211,
To what extent did the music make you feel ,FRUSTRATED,30MonoWAV/30MonoF3.wav,1,2,2,3,,,,,1,0,16,2,0,4,4,3,,,,,,,,,1,1.6857594900011463,,,115,001,2019_Sep_23_1011,MusicAffectPsychophysiology2019,3.0.5,60.02233431012211,
To what extent did the music make you feel ,ACTIVE,30MonoWAV/30MonoF3.wav,1,2,2,3,,,,,1,0,16,2,0,5,5,9,,,,,,,,,3,1.551185730000725,,,115,001,2019_Sep_23_1011,MusicAffectPsychophysiology2019,3.0.5,60.02233431012211,
To what extent did the music make you feel ,HAPPY,30MonoWAV/30MonoF3.wav,1,2,2,3,,,,,1,0,16,2,0,6,6,6,,,,,,,,,3,2.4692494489991077,,,115,001,2019_Sep_23_1011,MusicAffectPsychophysiology2019,3.0.5,60.02233431012211,
To what extent did the music make you feel ,TENDER,30MonoWAV/30MonoF3.wav,1,2,2,3,,,,,1,0,16,2,0,7,7,10,,,,,,,,,2,1.2328477130013198,,,115,001,2019_Sep_23_1011,MusicAffectPsychophysiology2019,3.0.5,60.02233431012211,
To what extent did the music make you feel ,GUILTY,30MonoWAV/30MonoF3.wav,1,2,2,3,,,,,1,0,16,2,0,8,8,5,,,,,,,,,1,3.3498576439997123,,,115,001,2019_Sep_23_1011,MusicAffectPsychophysiology2019,3.0.5,60.02233431012211,
To what extent did the music make you feel ,EXCITED,30MonoWAV/30MonoF3.wav,1,2,2,3,,,,,1,0,16,2,0,9,9,7,,,,,,,,,4,1.6178506659998675,,,115,001,2019_Sep_23_1011,MusicAffectPsychophysiology2019,3.0.5,60.02233431012211,
To what extent did the music make you feel ,SCARED,30MonoWAV/30MonoF3.wav,1,2,2,3,,,,,1,0,16,2,0,10,10,11,,,,,,,,,2,2.6368485529983445,,,115,001,2019_Sep_23_1011,MusicAffectPsychophysiology2019,3.0.5,60.02233431012211,
To what extent did the music make you feel ,ANGRY,30MonoWAV/30MonoF3.wav,1,2,2,3,,,,,1,0,16,2,0,11,11,2,,,,,,,,,1,1.306949739000629,,,115,001,2019_Sep_23_1011,MusicAffectPsychophysiology2019,3.0.5,60.02233431012211,
,,30MonoWAV/30MonoF3.wav,1,2,2,3,,,,,1,0,16,2,,,,,,,,,,,,,,,,,115,001,2019_Sep_23_1011,MusicAffectPsychophysiology2019,3.0.5,60.02233431012211,
To what extent did the music make you feel ,ALERT,30MonoWAV/30MonoS2.wav,1,1,3,10,,,,,1,1,17,9,0,0,0,8,,,2,3.6858892800009926,3,1.868714647998786,3,1.3030590289999964,2,5.500977718000286,,,115,001,2019_Sep_23_1011,MusicAffectPsychophysiology2019,3.0.5,60.02233431012211,
To what extent did the music make you feel ,ACTIVE,30MonoWAV/30MonoS2.wav,1,1,3,10,,,,,1,1,17,9,0,1,1,9,,,,,,,,,1,1.6691455340005632,,,115,001,2019_Sep_23_1011,MusicAffectPsychophysiology2019,3.0.5,60.02233431012211,
To what extent did the music make you feel ,SAD,30MonoWAV/30MonoS2.wav,1,1,3,10,,,,,1,1,17,9,0,2,2,0,,,,,,,,,3,2.80241282300085,,,115,001,2019_Sep_23_1011,MusicAffectPsychophysiology2019,3.0.5,60.02233431012211,
To what extent did the music make you feel ,TENDER,30MonoWAV/30MonoS2.wav,1,1,3,10,,,,,1,1,17,9,0,3,3,10,,,,,,,,,1,1.1855603460007842,,,115,001,2019_Sep_23_1011,MusicAffectPsychophysiology2019,3.0.5,60.02233431012211,
To what extent did the music make you feel ,ASHAMED,30MonoWAV/30MonoS2.wav,1,1,3,10,,,,,1,1,17,9,0,4,4,4,,,,,,,,,2,1.8504029470004753,,,115,001,2019_Sep_23_1011,MusicAffectPsychophysiology2019,3.0.5,60.02233431012211,
To what extent did the music make you feel ,ANXIOUS ,30MonoWAV/30MonoS2.wav,1,1,3,10,,,,,1,1,17,9,0,5,5,1,,,,,,,,,1,1.119059376000223,,,115,001,2019_Sep_23_1011,MusicAffectPsychophysiology2019,3.0.5,60.02233431012211,
To what extent did the music make you feel ,ANGRY,30MonoWAV/30MonoS2.wav,1,1,3,10,,,,,1,1,17,9,0,6,6,2,,,,,,,,,1,1.052640875999714,,,115,001,2019_Sep_23_1011,MusicAffectPsychophysiology2019,3.0.5,60.02233431012211,
To what extent did the music make you feel ,HAPPY,30MonoWAV/30MonoS2.wav,1,1,3,10,,,,,1,1,17,9,0,7,7,6,,,,,,,,,1,1.7351401609994355,,,115,001,2019_Sep_23_1011,MusicAffectPsychophysiology2019,3.0.5,60.02233431012211,
To what extent did the music make you feel ,SCARED,30MonoWAV/30MonoS2.wav,1,1,3,10,,,,,1,1,17,9,0,8,8,11,,,,,,,,,1,0.98518584500016,,,115,001,2019_Sep_23_1011,MusicAffectPsychophysiology2019,3.0.5,60.02233431012211,
To what extent did the music make you feel ,EXCITED,30MonoWAV/30MonoS2.wav,1,1,3,10,,,,,1,1,17,9,0,9,9,7,,,,,,,,,1,0.6696136449991172,,,115,001,2019_Sep_23_1011,MusicAffectPsychophysiology2019,3.0.5,60.02233431012211,
To what extent did the music make you feel ,FRUSTRATED,30MonoWAV/30MonoS2.wav,1,1,3,10,,,,,1,1,17,9,0,10,10,3,,,,,,,,,1,1.5539598560008017,,,115,001,2019_Sep_23_1011,MusicAffectPsychophysiology2019,3.0.5,60.02233431012211,
To what extent did the music make you feel ,GUILTY,30MonoWAV/30MonoS2.wav,1,1,3,10,,,,,1,1,17,9,0,11,11,5,,,,,,,,,3,1.1359139279993542,,,115,001,2019_Sep_23_1011,MusicAffectPsychophysiology2019,3.0.5,60.02233431012211,
,,30MonoWAV/30MonoS2.wav,1,1,3,10,,,,,1,1,17,9,,,,,,,,,,,,,,,,,115,001,2019_Sep_23_1011,MusicAffectPsychophysiology2019,3.0.5,60.02233431012211,
To what extent did the music make you feel ,ANGRY,30MonoWAV/30MonoF2.wav,1,2,2,2,,,,,1,2,18,1,0,0,0,2,,,3,2.9023590670003614,1,1.7522596809994866,4,1.6536672669990367,2,1.5327346220001346,,,115,001,2019_Sep_23_1011,MusicAffectPsychophysiology2019,3.0.5,60.02233431012211,
To what extent did the music make you feel ,SCARED,30MonoWAV/30MonoF2.wav,1,2,2,2,,,,,1,2,18,1,0,1,1,11,,,,,,,,,4,2.035303507998833,,,115,001,2019_Sep_23_1011,MusicAffectPsychophysiology2019,3.0.5,60.02233431012211,
To what extent did the music make you feel ,ANXIOUS ,30MonoWAV/30MonoF2.wav,1,2,2,2,,,,,1,2,18,1,0,2,2,1,,,,,,,,,4,0.6861356509998586,,,115,001,2019_Sep_23_1011,MusicAffectPsychophysiology2019,3.0.5,60.02233431012211,
To what extent did the music make you feel ,ACTIVE,30MonoWAV/30MonoF2.wav,1,2,2,2,,,,,1,2,18,1,0,3,3,9,,,,,,,,,2,1.1865593170005013,,,115,001,2019_Sep_23_1011,MusicAffectPsychophysiology2019,3.0.5,60.02233431012211,
To what extent did the music make you feel ,HAPPY,30MonoWAV/30MonoF2.wav,1,2,2,2,,,,,1,2,18,1,0,4,4,6,,,,,,,,,1,2.136215997999898,,,115,001,2019_Sep_23_1011,MusicAffectPsychophysiology2019,3.0.5,60.02233431012211,
To what extent did the music make you feel ,ALERT,30MonoWAV/30MonoF2.wav,1,2,2,2,,,,,1,2,18,1,0,5,5,8,,,,,,,,,3,1.3352636090003216,,,115,001,2019_Sep_23_1011,MusicAffectPsychophysiology2019,3.0.5,60.02233431012211,
To what extent did the music make you feel ,SAD,30MonoWAV/30MonoF2.wav,1,2,2,2,,,,,1,2,18,1,0,6,6,0,,,,,,,,,1,3.170345896998697,,,115,001,2019_Sep_23_1011,MusicAffectPsychophysiology2019,3.0.5,60.02233431012211,
To what extent did the music make you feel ,TENDER,30MonoWAV/30MonoF2.wav,1,2,2,2,,,,,1,2,18,1,0,7,7,10,,,,,,,,,1,0.9024573000006058,,,115,001,2019_Sep_23_1011,MusicAffectPsychophysiology2019,3.0.5,60.02233431012211,
To what extent did the music make you feel ,FRUSTRATED,30MonoWAV/30MonoF2.wav,1,2,2,2,,,,,1,2,18,1,0,8,8,3,,,,,,,,,2,1.3936861930014857,,,115,001,2019_Sep_23_1011,MusicAffectPsychophysiology2019,3.0.5,60.02233431012211,
To what extent did the music make you feel ,EXCITED,30MonoWAV/30MonoF2.wav,1,2,2,2,,,,,1,2,18,1,0,9,9,7,,,,,,,,,3,1.924869320999278,,,115,001,2019_Sep_23_1011,MusicAffectPsychophysiology2019,3.0.5,60.02233431012211,
To what extent did the music make you feel ,GUILTY,30MonoWAV/30MonoF2.wav,1,2,2,2,,,,,1,2,18,1,0,10,10,5,,,,,,,,,2,1.4346028519994434,,,115,001,2019_Sep_23_1011,MusicAffectPsychophysiology2019,3.0.5,60.02233431012211,
To what extent did the music make you feel ,ASHAMED,30MonoWAV/30MonoF2.wav,1,2,2,2,,,,,1,2,18,1,0,11,11,4,,,,,,,,,2,1.2530725300002814,,,115,001,2019_Sep_23_1011,MusicAffectPsychophysiology2019,3.0.5,60.02233431012211,
,,30MonoWAV/30MonoF2.wav,1,2,2,2,,,,,1,2,18,1,,,,,,,,,,,,,,,,,115,001,2019_Sep_23_1011,MusicAffectPsychophysiology2019,3.0.5,60.02233431012211,
To what extent did the music make you feel ,SAD,30MonoWAV/30MonoH4.wav,2,2,1,8,,,,,1,3,19,7,0,0,0,0,,,3,2.85290594000071,3,1.0017925539996213,1,0.20311106299959647,1,2.119217168999967,,,115,001,2019_Sep_23_1011,MusicAffectPsychophysiology2019,3.0.5,60.02233431012211,
To what extent did the music make you feel ,ASHAMED,30MonoWAV/30MonoH4.wav,2,2,1,8,,,,,1,3,19,7,0,1,1,4,,,,,,,,,1,0.719935072998851,,,115,001,2019_Sep_23_1011,MusicAffectPsychophysiology2019,3.0.5,60.02233431012211,
To what extent did the music make you feel ,FRUSTRATED,30MonoWAV/30MonoH4.wav,2,2,1,8,,,,,1,3,19,7,0,2,2,3,,,,,,,,,1,0.535237068999777,,,115,001,2019_Sep_23_1011,MusicAffectPsychophysiology2019,3.0.5,60.02233431012211,
To what extent did the music make you feel ,GUILTY,30MonoWAV/30MonoH4.wav,2,2,1,8,,,,,1,3,19,7,0,3,3,5,,,,,,,,,1,2.1528356239996356,,,115,001,2019_Sep_23_1011,MusicAffectPsychophysiology2019,3.0.5,60.02233431012211,
To what extent did the music make you feel ,SCARED,30MonoWAV/30MonoH4.wav,2,2,1,8,,,,,1,3,19,7,0,4,4,11,,,,,,,,,1,1.0495564389984793,,,115,001,2019_Sep_23_1011,MusicAffectPsychophysiology2019,3.0.5,60.02233431012211,
To what extent did the music make you feel ,ACTIVE,30MonoWAV/30MonoH4.wav,2,2,1,8,,,,,1,3,19,7,0,5,5,9,,,,,,,,,3,1.086011512999903,,,115,001,2019_Sep_23_1011,MusicAffectPsychophysiology2019,3.0.5,60.02233431012211,
To what extent did the music make you feel ,TENDER,30MonoWAV/30MonoH4.wav,2,2,1,8,,,,,1,3,19,7,0,6,6,10,,,,,,,,,3,1.1680581970013009,,,115,001,2019_Sep_23_1011,MusicAffectPsychophysiology2019,3.0.5,60.02233431012211,
To what extent did the music make you feel ,ANGRY,30MonoWAV/30MonoH4.wav,2,2,1,8,,,,,1,3,19,7,0,7,7,2,,,,,,,,,3,2.2676651620004122,,,115,001,2019_Sep_23_1011,MusicAffectPsychophysiology2019,3.0.5,60.02233431012211,
To what extent did the music make you feel ,ANXIOUS ,30MonoWAV/30MonoH4.wav,2,2,1,8,,,,,1,3,19,7,0,8,8,1,,,,,,,,,2,2.5522099360005086,,,115,001,2019_Sep_23_1011,MusicAffectPsychophysiology2019,3.0.5,60.02233431012211,
To what extent did the music make you feel ,EXCITED,30MonoWAV/30MonoH4.wav,2,2,1,8,,,,,1,3,19,7,0,9,9,7,,,,,,,,,3,1.218043000999387,,,115,001,2019_Sep_23_1011,MusicAffectPsychophysiology2019,3.0.5,60.02233431012211,
To what extent did the music make you feel ,HAPPY,30MonoWAV/30MonoH4.wav,2,2,1,8,,,,,1,3,19,7,0,10,10,6,,,,,,,,,3,1.0338376189993141,,,115,001,2019_Sep_23_1011,MusicAffectPsychophysiology2019,3.0.5,60.02233431012211,
To what extent did the music make you feel ,ALERT,30MonoWAV/30MonoH4.wav,2,2,1,8,,,,,1,3,19,7,0,11,11,8,,,,,,,,,3,3.985181415000625,,,115,001,2019_Sep_23_1011,MusicAffectPsychophysiology2019,3.0.5,60.02233431012211,
,,30MonoWAV/30MonoH4.wav,2,2,1,8,,,,,1,3,19,7,,,,,,,,,,,,,,,,,115,001,2019_Sep_23_1011,MusicAffectPsychophysiology2019,3.0.5,60.02233431012211,
To what extent did the music make you feel ,EXCITED,30MonoWAV/30MonoT1.wav,2,1,4,13,,,,,1,4,20,12,0,0,0,7,,,2,4.019775923999987,2,0.5857778949994099,2,1.5189699720012868,1,1.0966425450005772,,,115,001,2019_Sep_23_1011,MusicAffectPsychophysiology2019,3.0.5,60.02233431012211,
To what extent did the music make you feel ,ALERT,30MonoWAV/30MonoT1.wav,2,1,4,13,,,,,1,4,20,12,0,1,1,8,,,,,,,,,1,0.8530254620000051,,,115,001,2019_Sep_23_1011,MusicAffectPsychophysiology2019,3.0.5,60.02233431012211,
To what extent did the music make you feel ,GUILTY,30MonoWAV/30MonoT1.wav,2,1,4,13,,,,,1,4,20,12,0,2,2,5,,,,,,,,,2,0.7878868450006848,,,115,001,2019_Sep_23_1011,MusicAffectPsychophysiology2019,3.0.5,60.02233431012211,
To what extent did the music make you feel ,ANGRY,30MonoWAV/30MonoT1.wav,2,1,4,13,,,,,1,4,20,12,0,3,3,2,,,,,,,,,1,0.7023866950003139,,,115,001,2019_Sep_23_1011,MusicAffectPsychophysiology2019,3.0.5,60.02233431012211,
To what extent did the music make you feel ,HAPPY,30MonoWAV/30MonoT1.wav,2,1,4,13,,,,,1,4,20,12,0,4,4,6,,,,,,,,,1,0.7021793320000143,,,115,001,2019_Sep_23_1011,MusicAffectPsychophysiology2019,3.0.5,60.02233431012211,
To what extent did the music make you feel ,TENDER,30MonoWAV/30MonoT1.wav,2,1,4,13,,,,,1,4,20,12,0,5,5,10,,,,,,,,,1,0.6860486490004405,,,115,001,2019_Sep_23_1011,MusicAffectPsychophysiology2019,3.0.5,60.02233431012211,
To what extent did the music make you feel ,SCARED,30MonoWAV/30MonoT1.wav,2,1,4,13,,,,,1,4,20,12,0,6,6,11,,,,,,,,,1,0.8189499710006203,,,115,001,2019_Sep_23_1011,MusicAffectPsychophysiology2019,3.0.5,60.02233431012211,
To what extent did the music make you feel ,SAD,30MonoWAV/30MonoT1.wav,2,1,4,13,,,,,1,4,20,12,0,7,7,0,,,,,,,,,2,0.6694849230007094,,,115,001,2019_Sep_23_1011,MusicAffectPsychophysiology2019,3.0.5,60.02233431012211,
To what extent did the music make you feel ,ACTIVE,30MonoWAV/30MonoT1.wav,2,1,4,13,,,,,1,4,20,12,0,8,8,9,,,,,,,,,1,0.902671026000462,,,115,001,2019_Sep_23_1011,MusicAffectPsychophysiology2019,3.0.5,60.02233431012211,
To what extent did the music make you feel ,ASHAMED,30MonoWAV/30MonoT1.wav,2,1,4,13,,,,,1,4,20,12,0,9,9,4,,,,,,,,,2,3.1178482639988943,,,115,001,2019_Sep_23_1011,MusicAffectPsychophysiology2019,3.0.5,60.02233431012211,
To what extent did the music make you feel ,ANXIOUS ,30MonoWAV/30MonoT1.wav,2,1,4,13,,,,,1,4,20,12,0,10,10,1,,,,,,,,,2,0.8363707240005169,,,115,001,2019_Sep_23_1011,MusicAffectPsychophysiology2019,3.0.5,60.02233431012211,
To what extent did the music make you feel ,FRUSTRATED,30MonoWAV/30MonoT1.wav,2,1,4,13,,,,,1,4,20,12,0,11,11,3,,,,,,,,,2,1.4937490730007994,,,115,001,2019_Sep_23_1011,MusicAffectPsychophysiology2019,3.0.5,60.02233431012211,
,,30MonoWAV/30MonoT1.wav,2,1,4,13,,,,,1,4,20,12,,,,,,,,,,,,,,,,,115,001,2019_Sep_23_1011,MusicAffectPsychophysiology2019,3.0.5,60.02233431012211,
To what extent did the music make you feel ,FRUSTRATED,30MonoWAV/30MonoH3.wav,2,2,1,7,,,,,1,5,21,6,0,0,0,3,,,3,3.918984134001221,5,1.7850511130000086,4,1.486042432999966,1,1.3043736760009779,,,115,001,2019_Sep_23_1011,MusicAffectPsychophysiology2019,3.0.5,60.02233431012211,
To what extent did the music make you feel ,TENDER,30MonoWAV/30MonoH3.wav,2,2,1,7,,,,,1,5,21,6,0,1,1,10,,,,,,,,,1,0.7224104159995477,,,115,001,2019_Sep_23_1011,MusicAffectPsychophysiology2019,3.0.5,60.02233431012211,
To what extent did the music make you feel ,HAPPY,30MonoWAV/30MonoH3.wav,2,2,1,7,,,,,1,5,21,6,0,2,2,6,,,,,,,,,3,1.8698026559995924,,,115,001,2019_Sep_23_1011,MusicAffectPsychophysiology2019,3.0.5,60.02233431012211,
To what extent did the music make you feel ,SCARED,30MonoWAV/30MonoH3.wav,2,2,1,7,,,,,1,5,21,6,0,3,3,11,,,,,,,,,1,0.9850351789991691,,,115,001,2019_Sep_23_1011,MusicAffectPsychophysiology2019,3.0.5,60.02233431012211,
To what extent did the music make you feel ,ANGRY,30MonoWAV/30MonoH3.wav,2,2,1,7,,,,,1,5,21,6,0,4,4,2,,,,,,,,,2,1.670331402001466,,,115,001,2019_Sep_23_1011,MusicAffectPsychophysiology2019,3.0.5,60.02233431012211,
To what extent did the music make you feel ,EXCITED,30MonoWAV/30MonoH3.wav,2,2,1,7,,,,,1,5,21,6,0,5,5,7,,,,,,,,,3,1.583270919001734,,,115,001,2019_Sep_23_1011,MusicAffectPsychophysiology2019,3.0.5,60.02233431012211,
To what extent did the music make you feel ,SAD,30MonoWAV/30MonoH3.wav,2,2,1,7,,,,,1,5,21,6,0,6,6,0,,,,,,,,,1,1.9363058859999,,,115,001,2019_Sep_23_1011,MusicAffectPsychophysiology2019,3.0.5,60.02233431012211,
To what extent did the music make you feel ,ANXIOUS ,30MonoWAV/30MonoH3.wav,2,2,1,7,,,,,1,5,21,6,0,7,7,1,,,,,,,,,2,4.21938196299925,,,115,001,2019_Sep_23_1011,MusicAffectPsychophysiology2019,3.0.5,60.02233431012211,
To what extent did the music make you feel ,ASHAMED,30MonoWAV/30MonoH3.wav,2,2,1,7,,,,,1,5,21,6,0,8,8,4,,,,,,,,,1,1.5524583290007286,,,115,001,2019_Sep_23_1011,MusicAffectPsychophysiology2019,3.0.5,60.02233431012211,
To what extent did the music make you feel ,GUILTY,30MonoWAV/30MonoH3.wav,2,2,1,7,,,,,1,5,21,6,0,9,9,5,,,,,,,,,2,1.0670524329998443,,,115,001,2019_Sep_23_1011,MusicAffectPsychophysiology2019,3.0.5,60.02233431012211,
To what extent did the music make you feel ,ACTIVE,30MonoWAV/30MonoH3.wav,2,2,1,7,,,,,1,5,21,6,0,10,10,9,,,,,,,,,3,2.118126026000027,,,115,001,2019_Sep_23_1011,MusicAffectPsychophysiology2019,3.0.5,60.02233431012211,
To what extent did the music make you feel ,ALERT,30MonoWAV/30MonoH3.wav,2,2,1,7,,,,,1,5,21,6,0,11,11,8,,,,,,,,,3,0.8014565659996151,,,115,001,2019_Sep_23_1011,MusicAffectPsychophysiology2019,3.0.5,60.02233431012211,
,,30MonoWAV/30MonoH3.wav,2,2,1,7,,,,,1,5,21,6,,,,,,,,,,,,,,,,,115,001,2019_Sep_23_1011,MusicAffectPsychophysiology2019,3.0.5,60.02233431012211,
To what extent did the music make you feel ,ASHAMED,30MonoWAV/30MonoS1.wav,1,1,3,9,,,,,1,6,22,8,0,0,0,4,,,2,4.217570540000452,3,3.2690498100000696,3,1.4664171029999125,2,1.515264446999936,,,115,001,2019_Sep_23_1011,MusicAffectPsychophysiology2019,3.0.5,60.02233431012211,
To what extent did the music make you feel ,ACTIVE,30MonoWAV/30MonoS1.wav,1,1,3,9,,,,,1,6,22,8,0,1,1,9,,,,,,,,,3,0.8505790090002847,,,115,001,2019_Sep_23_1011,MusicAffectPsychophysiology2019,3.0.5,60.02233431012211,
To what extent did the music make you feel ,ANXIOUS ,30MonoWAV/30MonoS1.wav,1,1,3,9,,,,,1,6,22,8,0,2,2,1,,,,,,,,,2,1.1036010480002005,,,115,001,2019_Sep_23_1011,MusicAffectPsychophysiology2019,3.0.5,60.02233431012211,
To what extent did the music make you feel ,GUILTY,30MonoWAV/30MonoS1.wav,1,1,3,9,,,,,1,6,22,8,0,3,3,5,,,,,,,,,3,0.9858616940000502,,,115,001,2019_Sep_23_1011,MusicAffectPsychophysiology2019,3.0.5,60.02233431012211,
To what extent did the music make you feel ,TENDER,30MonoWAV/30MonoS1.wav,1,1,3,9,,,,,1,6,22,8,0,4,4,10,,,,,,,,,1,1.4375803579987405,,,115,001,2019_Sep_23_1011,MusicAffectPsychophysiology2019,3.0.5,60.02233431012211,
To what extent did the music make you feel ,SCARED,30MonoWAV/30MonoS1.wav,1,1,3,9,,,,,1,6,22,8,0,5,5,11,,,,,,,,,1,0.9696345459997247,,,115,001,2019_Sep_23_1011,MusicAffectPsychophysiology2019,3.0.5,60.02233431012211,
To what extent did the music make you feel ,EXCITED,30MonoWAV/30MonoS1.wav,1,1,3,9,,,,,1,6,22,8,0,6,6,7,,,,,,,,,1,0.9038910220006073,,,115,001,2019_Sep_23_1011,MusicAffectPsychophysiology2019,3.0.5,60.02233431012211,
To what extent did the music make you feel ,HAPPY,30MonoWAV/30MonoS1.wav,1,1,3,9,,,,,1,6,22,8,0,7,7,6,,,,,,,,,1,0.7851795120004681,,,115,001,2019_Sep_23_1011,MusicAffectPsychophysiology2019,3.0.5,60.02233431012211,
To what extent did the music make you feel ,ALERT,30MonoWAV/30MonoS1.wav,1,1,3,9,,,,,1,6,22,8,0,8,8,8,,,,,,,,,2,1.5337419090010371,,,115,001,2019_Sep_23_1011,MusicAffectPsychophysiology2019,3.0.5,60.02233431012211,
To what extent did the music make you feel ,SAD,30MonoWAV/30MonoS1.wav,1,1,3,9,,,,,1,6,22,8,0,9,9,0,,,,,,,,,2,4.052415866999581,,,115,001,2019_Sep_23_1011,MusicAffectPsychophysiology2019,3.0.5,60.02233431012211,
To what extent did the music make you feel ,FRUSTRATED,30MonoWAV/30MonoS1.wav,1,1,3,9,,,,,1,6,22,8,0,10,10,3,,,,,,,,,1,1.1306724679998297,,,115,001,2019_Sep_23_1011,MusicAffectPsychophysiology2019,3.0.5,60.02233431012211,
To what extent did the music make you feel ,ANGRY,30MonoWAV/30MonoS1.wav,1,1,3,9,,,,,1,6,22,8,0,11,11,2,,,,,,,,,1,0.7188300610014267,,,115,001,2019_Sep_23_1011,MusicAffectPsychophysiology2019,3.0.5,60.02233431012211,
,,30MonoWAV/30MonoS1.wav,1,1,3,9,,,,,1,6,22,8,,,,,,,,,,,,,,,,,115,001,2019_Sep_23_1011,MusicAffectPsychophysiology2019,3.0.5,60.02233431012211,
To what extent did the music make you feel ,SCARED,30MonoWAV/30MonoS3.wav,1,1,3,11,,,,,1,7,23,10,0,0,0,11,,,2,3.03628701299931,2,0.8024766500002443,3,3.6201458710002044,1,2.140741926999908,,,115,001,2019_Sep_23_1011,MusicAffectPsychophysiology2019,3.0.5,60.02233431012211,
To what extent did the music make you feel ,ASHAMED,30MonoWAV/30MonoS3.wav,1,1,3,11,,,,,1,7,23,10,0,1,1,4,,,,,,,,,2,1.2534842589993787,,,115,001,2019_Sep_23_1011,MusicAffectPsychophysiology2019,3.0.5,60.02233431012211,
To what extent did the music make you feel ,EXCITED,30MonoWAV/30MonoS3.wav,1,1,3,11,,,,,1,7,23,10,0,2,2,7,,,,,,,,,1,0.5697291080014111,,,115,001,2019_Sep_23_1011,MusicAffectPsychophysiology2019,3.0.5,60.02233431012211,
To what extent did the music make you feel ,SAD,30MonoWAV/30MonoS3.wav,1,1,3,11,,,,,1,7,23,10,0,3,3,0,,,,,,,,,3,1.1690930350014241,,,115,001,2019_Sep_23_1011,MusicAffectPsychophysiology2019,3.0.5,60.02233431012211,
To what extent did the music make you feel ,ANGRY,30MonoWAV/30MonoS3.wav,1,1,3,11,,,,,1,7,23,10,0,4,4,2,,,,,,,,,1,0.8026043659992865,,,115,001,2019_Sep_23_1011,MusicAffectPsychophysiology2019,3.0.5,60.02233431012211,
To what extent did the music make you feel ,FRUSTRATED,30MonoWAV/30MonoS3.wav,1,1,3,11,,,,,1,7,23,10,0,5,5,3,,,,,,,,,1,0.6551649610009918,,,115,001,2019_Sep_23_1011,MusicAffectPsychophysiology2019,3.0.5,60.02233431012211,
To what extent did the music make you feel ,HAPPY,30MonoWAV/30MonoS3.wav,1,1,3,11,,,,,1,7,23,10,0,6,6,6,,,,,,,,,1,1.3854009560000122,,,115,001,2019_Sep_23_1011,MusicAffectPsychophysiology2019,3.0.5,60.02233431012211,
To what extent did the music make you feel ,TENDER,30MonoWAV/30MonoS3.wav,1,1,3,11,,,,,1,7,23,10,0,7,7,10,,,,,,,,,1,0.8364948449998337,,,115,001,2019_Sep_23_1011,MusicAffectPsychophysiology2019,3.0.5,60.02233431012211,
To what extent did the music make you feel ,ANXIOUS ,30MonoWAV/30MonoS3.wav,1,1,3,11,,,,,1,7,23,10,0,8,8,1,,,,,,,,,1,0.8190357779985789,,,115,001,2019_Sep_23_1011,MusicAffectPsychophysiology2019,3.0.5,60.02233431012211,
To what extent did the music make you feel ,ALERT,30MonoWAV/30MonoS3.wav,1,1,3,11,,,,,1,7,23,10,0,9,9,8,,,,,,,,,1,1.018766601999232,,,115,001,2019_Sep_23_1011,MusicAffectPsychophysiology2019,3.0.5,60.02233431012211,
To what extent did the music make you feel ,ACTIVE,30MonoWAV/30MonoS3.wav,1,1,3,11,,,,,1,7,23,10,0,10,10,9,,,,,,,,,1,1.0826512240000739,,,115,001,2019_Sep_23_1011,MusicAffectPsychophysiology2019,3.0.5,60.02233431012211,
To what extent did the music make you feel ,GUILTY,30MonoWAV/30MonoS3.wav,1,1,3,11,,,,,1,7,23,10,0,11,11,5,,,,,,,,,2,0.9862658370002464,,,115,001,2019_Sep_23_1011,MusicAffectPsychophysiology2019,3.0.5,60.02233431012211,
,,30MonoWAV/30MonoS3.wav,1,1,3,11,,,,,1,7,23,10,,,,,,,,,,,,,,,,,115,001,2019_Sep_23_1011,MusicAffectPsychophysiology2019,3.0.5,60.02233431012211,
To what extent did the music make you feel ,ASHAMED,30MonoWAV/30MonoF4.wav,1,2,2,4,,,,,1,8,24,3,0,0,0,4,,,2,3.2030584949989134,2,0.618780101000084,5,3.318960791999416,1,1.1025462060006248,,,115,001,2019_Sep_23_1011,MusicAffectPsychophysiology2019,3.0.5,60.02233431012211,
To what extent did the music make you feel ,SCARED,30MonoWAV/30MonoF4.wav,1,2,2,4,,,,,1,8,24,3,0,1,1,11,,,,,,,,,1,0.7187060029991699,,,115,001,2019_Sep_23_1011,MusicAffectPsychophysiology2019,3.0.5,60.02233431012211,
To what extent did the music make you feel ,GUILTY,30MonoWAV/30MonoF4.wav,1,2,2,4,,,,,1,8,24,3,0,2,2,5,,,,,,,,,1,1.0668880640005227,,,115,001,2019_Sep_23_1011,MusicAffectPsychophysiology2019,3.0.5,60.02233431012211,
To what extent did the music make you feel ,HAPPY,30MonoWAV/30MonoF4.wav,1,2,2,4,,,,,1,8,24,3,0,3,3,6,,,,,,,,,3,1.3016956789997494,,,115,001,2019_Sep_23_1011,MusicAffectPsychophysiology2019,3.0.5,60.02233431012211,
To what extent did the music make you feel ,ALERT,30MonoWAV/30MonoF4.wav,1,2,2,4,,,,,1,8,24,3,0,4,4,8,,,,,,,,,5,1.101873028999762,,,115,001,2019_Sep_23_1011,MusicAffectPsychophysiology2019,3.0.5,60.02233431012211,
To what extent did the music make you feel ,TENDER,30MonoWAV/30MonoF4.wav,1,2,2,4,,,,,1,8,24,3,0,5,5,10,,,,,,,,,1,0.8859733739991498,,,115,001,2019_Sep_23_1011,MusicAffectPsychophysiology2019,3.0.5,60.02233431012211,
To what extent did the music make you feel ,FRUSTRATED,30MonoWAV/30MonoF4.wav,1,2,2,4,,,,,1,8,24,3,0,6,6,3,,,,,,,,,2,1.9375774179989094,,,115,001,2019_Sep_23_1011,MusicAffectPsychophysiology2019,3.0.5,60.02233431012211,
To what extent did the music make you feel ,ANXIOUS ,30MonoWAV/30MonoF4.wav,1,2,2,4,,,,,1,8,24,3,0,7,7,1,,,,,,,,,3,1.283513120999487,,,115,001,2019_Sep_23_1011,MusicAffectPsychophysiology2019,3.0.5,60.02233431012211,
To what extent did the music make you feel ,SAD,30MonoWAV/30MonoF4.wav,1,2,2,4,,,,,1,8,24,3,0,8,8,0,,,,,,,,,1,1.1030549179995432,,,115,001,2019_Sep_23_1011,MusicAffectPsychophysiology2019,3.0.5,60.02233431012211,
To what extent did the music make you feel ,EXCITED,30MonoWAV/30MonoF4.wav,1,2,2,4,,,,,1,8,24,3,0,9,9,7,,,,,,,,,5,1.0513833230015734,,,115,001,2019_Sep_23_1011,MusicAffectPsychophysiology2019,3.0.5,60.02233431012211,
To what extent did the music make you feel ,ANGRY,30MonoWAV/30MonoF4.wav,1,2,2,4,,,,,1,8,24,3,0,10,10,2,,,,,,,,,1,0.9021154799993383,,,115,001,2019_Sep_23_1011,MusicAffectPsychophysiology2019,3.0.5,60.02233431012211,
To what extent did the music make you feel ,ACTIVE,30MonoWAV/30MonoF4.wav,1,2,2,4,,,,,1,8,24,3,0,11,11,9,,,,,,,,,5,1.3029110290008248,,,115,001,2019_Sep_23_1011,MusicAffectPsychophysiology2019,3.0.5,60.02233431012211,
,,30MonoWAV/30MonoF4.wav,1,2,2,4,,,,,1,8,24,3,,,,,,,,,,,,,,,,,115,001,2019_Sep_23_1011,MusicAffectPsychophysiology2019,3.0.5,60.02233431012211,
To what extent did the music make you feel ,EXCITED,30MonoWAV/30MonoH1.wav,2,2,1,5,,,,,1,9,25,4,0,0,0,7,,,4,2.6518793040013406,5,0.9357456449997699,5,0.7193236530001741,4,1.612880912000037,,,115,001,2019_Sep_23_1011,MusicAffectPsychophysiology2019,3.0.5,60.02233431012211,
To what extent did the music make you feel ,ANXIOUS ,30MonoWAV/30MonoH1.wav,2,2,1,5,,,,,1,9,25,4,0,1,1,1,,,,,,,,,4,1.0019966880008724,,,115,001,2019_Sep_23_1011,MusicAffectPsychophysiology2019,3.0.5,60.02233431012211,
To what extent did the music make you feel ,SAD,30MonoWAV/30MonoH1.wav,2,2,1,5,,,,,1,9,25,4,0,2,2,0,,,,,,,,,3,2.6357340380000096,,,115,001,2019_Sep_23_1011,MusicAffectPsychophysiology2019,3.0.5,60.02233431012211,
To what extent did the music make you feel ,GUILTY,30MonoWAV/30MonoH1.wav,2,2,1,5,,,,,1,9,25,4,0,3,3,5,,,,,,,,,3,0.9527984020005533,,,115,001,2019_Sep_23_1011,MusicAffectPsychophysiology2019,3.0.5,60.02233431012211,
To what extent did the music make you feel ,ASHAMED,30MonoWAV/30MonoH1.wav,2,2,1,5,,,,,1,9,25,4,0,4,4,4,,,,,,,,,1,1.8025266640015616,,,115,001,2019_Sep_23_1011,MusicAffectPsychophysiology2019,3.0.5,60.02233431012211,
To what extent did the music make you feel ,SCARED,30MonoWAV/30MonoH1.wav,2,2,1,5,,,,,1,9,25,4,0,5,5,11,,,,,,,,,1,1.4196380119992682,,,115,001,2019_Sep_23_1011,MusicAffectPsychophysiology2019,3.0.5,60.02233431012211,
To what extent did the music make you feel ,ACTIVE,30MonoWAV/30MonoH1.wav,2,2,1,5,,,,,1,9,25,4,0,6,6,9,,,,,,,,,1,1.0687211090007622,,,115,001,2019_Sep_23_1011,MusicAffectPsychophysiology2019,3.0.5,60.02233431012211,
To what extent did the music make you feel ,FRUSTRATED,30MonoWAV/30MonoH1.wav,2,2,1,5,,,,,1,9,25,4,0,7,7,3,,,,,,,,,1,1.3333828479990188,,,115,001,2019_Sep_23_1011,MusicAffectPsychophysiology2019,3.0.5,60.02233431012211,
To what extent did the music make you feel ,TENDER,30MonoWAV/30MonoH1.wav,2,2,1,5,,,,,1,9,25,4,0,8,8,10,,,,,,,,,4,1.3847466850002093,,,115,001,2019_Sep_23_1011,MusicAffectPsychophysiology2019,3.0.5,60.02233431012211,
To what extent did the music make you feel ,HAPPY,30MonoWAV/30MonoH1.wav,2,2,1,5,,,,,1,9,25,4,0,9,9,6,,,,,,,,,5,1.2691226010010723,,,115,001,2019_Sep_23_1011,MusicAffectPsychophysiology2019,3.0.5,60.02233431012211,
To what extent did the music make you feel ,ANGRY,30MonoWAV/30MonoH1.wav,2,2,1,5,,,,,1,9,25,4,0,10,10,2,,,,,,,,,1,0.9522005090002494,,,115,001,2019_Sep_23_1011,MusicAffectPsychophysiology2019,3.0.5,60.02233431012211,
To what extent did the music make you feel ,ALERT,30MonoWAV/30MonoH1.wav,2,2,1,5,,,,,1,9,25,4,0,11,11,8,,,,,,,,,3,1.3520406620009453,,,115,001,2019_Sep_23_1011,MusicAffectPsychophysiology2019,3.0.5,60.02233431012211,
,,30MonoWAV/30MonoH1.wav,2,2,1,5,,,,,1,9,25,4,,,,,,,,,,,,,,,,,115,001,2019_Sep_23_1011,MusicAffectPsychophysiology2019,3.0.5,60.02233431012211,
To what extent did the music make you feel ,ACTIVE,30MonoWAV/30MonoS4.wav,1,1,3,12,,,,,1,10,26,11,0,0,0,9,,,1,2.5857084220006072,1,0.9855497340013244,1,2.735352927000349,1,0.8542978139994375,,,115,001,2019_Sep_23_1011,MusicAffectPsychophysiology2019,3.0.5,60.02233431012211,
To what extent did the music make you feel ,TENDER,30MonoWAV/30MonoS4.wav,1,1,3,12,,,,,1,10,26,11,0,1,1,10,,,,,,,,,1,0.71986550100155,,,115,001,2019_Sep_23_1011,MusicAffectPsychophysiology2019,3.0.5,60.02233431012211,
To what extent did the music make you feel ,FRUSTRATED,30MonoWAV/30MonoS4.wav,1,1,3,12,,,,,1,10,26,11,0,2,2,3,,,,,,,,,1,0.7213164549993962,,,115,001,2019_Sep_23_1011,MusicAffectPsychophysiology2019,3.0.5,60.02233431012211,
To what extent did the music make you feel ,HAPPY,30MonoWAV/30MonoS4.wav,1,1,3,12,,,,,1,10,26,11,0,3,3,6,,,,,,,,,1,0.5534144050016039,,,115,001,2019_Sep_23_1011,MusicAffectPsychophysiology2019,3.0.5,60.02233431012211,
To what extent did the music make you feel ,SAD,30MonoWAV/30MonoS4.wav,1,1,3,12,,,,,1,10,26,11,0,4,4,0,,,,,,,,,4,2.6007329410003877,,,115,001,2019_Sep_23_1011,MusicAffectPsychophysiology2019,3.0.5,60.02233431012211,
To what extent did the music make you feel ,ANGRY,30MonoWAV/30MonoS4.wav,1,1,3,12,,,,,1,10,26,11,0,5,5,2,,,,,,,,,3,2.1698187820002204,,,115,001,2019_Sep_23_1011,MusicAffectPsychophysiology2019,3.0.5,60.02233431012211,
To what extent did the music make you feel ,ALERT,30MonoWAV/30MonoS4.wav,1,1,3,12,,,,,1,10,26,11,0,6,6,8,,,,,,,,,1,2.76882202699926,,,115,001,2019_Sep_23_1011,MusicAffectPsychophysiology2019,3.0.5,60.02233431012211,
To what extent did the music make you feel ,SCARED,30MonoWAV/30MonoS4.wav,1,1,3,12,,,,,1,10,26,11,0,7,7,11,,,,,,,,,1,1.4504742359986267,,,115,001,2019_Sep_23_1011,MusicAffectPsychophysiology2019,3.0.5,60.02233431012211,
To what extent did the music make you feel ,ANXIOUS ,30MonoWAV/30MonoS4.wav,1,1,3,12,,,,,1,10,26,11,0,8,8,1,,,,,,,,,2,1.1514745660006156,,,115,001,2019_Sep_23_1011,MusicAffectPsychophysiology2019,3.0.5,60.02233431012211,
To what extent did the music make you feel ,GUILTY,30MonoWAV/30MonoS4.wav,1,1,3,12,,,,,1,10,26,11,0,9,9,5,,,,,,,,,3,5.551833102999808,,,115,001,2019_Sep_23_1011,MusicAffectPsychophysiology2019,3.0.5,60.02233431012211,
To what extent did the music make you feel ,EXCITED,30MonoWAV/30MonoS4.wav,1,1,3,12,,,,,1,10,26,11,0,10,10,7,,,,,,,,,1,1.5846941799991328,,,115,001,2019_Sep_23_1011,MusicAffectPsychophysiology2019,3.0.5,60.02233431012211,
To what extent did the music make you feel ,ASHAMED,30MonoWAV/30MonoS4.wav,1,1,3,12,,,,,1,10,26,11,0,11,11,4,,,,,,,,,1,1.4022140619999846,,,115,001,2019_Sep_23_1011,MusicAffectPsychophysiology2019,3.0.5,60.02233431012211,
,,30MonoWAV/30MonoS4.wav,1,1,3,12,,,,,1,10,26,11,,,,,,,,,,,,,,,,,115,001,2019_Sep_23_1011,MusicAffectPsychophysiology2019,3.0.5,60.02233431012211,
To what extent did the music make you feel ,ANGRY,30MonoWAV/30MonoF1.wav,1,2,2,1,,,,,1,11,27,0,0,0,0,2,,,3,3.6028130579998106,4,1.5024584860002506,4,1.0029996760003996,1,1.5639510149994749,,,115,001,2019_Sep_23_1011,MusicAffectPsychophysiology2019,3.0.5,60.02233431012211,
To what extent did the music make you feel ,ANXIOUS ,30MonoWAV/30MonoF1.wav,1,2,2,1,,,,,1,11,27,0,0,1,1,1,,,,,,,,,3,1.2665678780012968,,,115,001,2019_Sep_23_1011,MusicAffectPsychophysiology2019,3.0.5,60.02233431012211,
To what extent did the music make you feel ,ALERT,30MonoWAV/30MonoF1.wav,1,2,2,1,,,,,1,11,27,0,0,2,2,8,,,,,,,,,3,3.253137315999993,,,115,001,2019_Sep_23_1011,MusicAffectPsychophysiology2019,3.0.5,60.02233431012211,
To what extent did the music make you feel ,EXCITED,30MonoWAV/30MonoF1.wav,1,2,2,1,,,,,1,11,27,0,0,3,3,7,,,,,,,,,3,1.3022165090005728,,,115,001,2019_Sep_23_1011,MusicAffectPsychophysiology2019,3.0.5,60.02233431012211,
To what extent did the music make you feel ,ACTIVE,30MonoWAV/30MonoF1.wav,1,2,2,1,,,,,1,11,27,0,0,4,4,9,,,,,,,,,3,1.067726892999417,,,115,001,2019_Sep_23_1011,MusicAffectPsychophysiology2019,3.0.5,60.02233431012211,
To what extent did the music make you feel ,TENDER,30MonoWAV/30MonoF1.wav,1,2,2,1,,,,,1,11,27,0,0,5,5,10,,,,,,,,,2,1.5505858640008228,,,115,001,2019_Sep_23_1011,MusicAffectPsychophysiology2019,3.0.5,60.02233431012211,
To what extent did the music make you feel ,ASHAMED,30MonoWAV/30MonoF1.wav,1,2,2,1,,,,,1,11,27,0,0,6,6,4,,,,,,,,,3,1.5188751120003872,,,115,001,2019_Sep_23_1011,MusicAffectPsychophysiology2019,3.0.5,60.02233431012211,
To what extent did the music make you feel ,SCARED,30MonoWAV/30MonoF1.wav,1,2,2,1,,,,,1,11,27,0,0,7,7,11,,,,,,,,,3,1.269341027998962,,,115,001,2019_Sep_23_1011,MusicAffectPsychophysiology2019,3.0.5,60.02233431012211,
To what extent did the music make you feel ,HAPPY,30MonoWAV/30MonoF1.wav,1,2,2,1,,,,,1,11,27,0,0,8,8,6,,,,,,,,,4,1.7341497060006077,,,115,001,2019_Sep_23_1011,MusicAffectPsychophysiology2019,3.0.5,60.02233431012211,
To what extent did the music make you feel ,FRUSTRATED,30MonoWAV/30MonoF1.wav,1,2,2,1,,,,,1,11,27,0,0,9,9,3,,,,,,,,,2,1.5188268279998738,,,115,001,2019_Sep_23_1011,MusicAffectPsychophysiology2019,3.0.5,60.02233431012211,
To what extent did the music make you feel ,GUILTY,30MonoWAV/30MonoF1.wav,1,2,2,1,,,,,1,11,27,0,0,10,10,5,,,,,,,,,3,3.5004238250003255,,,115,001,2019_Sep_23_1011,MusicAffectPsychophysiology2019,3.0.5,60.02233431012211,
To what extent did the music make you feel ,SAD,30MonoWAV/30MonoF1.wav,1,2,2,1,,,,,1,11,27,0,0,11,11,0,,,,,,,,,4,3.3196162120002555,,,115,001,2019_Sep_23_1011,MusicAffectPsychophysiology2019,3.0.5,60.02233431012211,
,,30MonoWAV/30MonoF1.wav,1,2,2,1,,,,,1,11,27,0,,,,,,,,,,,,,,,,,115,001,2019_Sep_23_1011,MusicAffectPsychophysiology2019,3.0.5,60.02233431012211,
To what extent did the music make you feel ,ACTIVE,30MonoWAV/30MonoT2.wav,2,1,4,14,,,,,1,12,28,13,0,0,0,9,,,2,2.434857241998543,1,1.2194607670007827,1,0.833681873000387,1,0.8731389829990803,,,115,001,2019_Sep_23_1011,MusicAffectPsychophysiology2019,3.0.5,60.02233431012211,
To what extent did the music make you feel ,SAD,30MonoWAV/30MonoT2.wav,2,1,4,14,,,,,1,12,28,13,0,1,1,0,,,,,,,,,1,1.0184302490015398,,,115,001,2019_Sep_23_1011,MusicAffectPsychophysiology2019,3.0.5,60.02233431012211,
To what extent did the music make you feel ,GUILTY,30MonoWAV/30MonoT2.wav,2,1,4,14,,,,,1,12,28,13,0,2,2,5,,,,,,,,,1,0.8028159639998194,,,115,001,2019_Sep_23_1011,MusicAffectPsychophysiology2019,3.0.5,60.02233431012211,
To what extent did the music make you feel ,ALERT,30MonoWAV/30MonoT2.wav,2,1,4,14,,,,,1,12,28,13,0,3,3,8,,,,,,,,,1,0.719146973999159,,,115,001,2019_Sep_23_1011,MusicAffectPsychophysiology2019,3.0.5,60.02233431012211,
To what extent did the music make you feel ,HAPPY,30MonoWAV/30MonoT2.wav,2,1,4,14,,,,,1,12,28,13,0,4,4,6,,,,,,,,,1,0.7194079990003956,,,115,001,2019_Sep_23_1011,MusicAffectPsychophysiology2019,3.0.5,60.02233431012211,
To what extent did the music make you feel ,SCARED,30MonoWAV/30MonoT2.wav,2,1,4,14,,,,,1,12,28,13,0,5,5,11,,,,,,,,,1,1.0204995430012787,,,115,001,2019_Sep_23_1011,MusicAffectPsychophysiology2019,3.0.5,60.02233431012211,
To what extent did the music make you feel ,ANGRY,30MonoWAV/30MonoT2.wav,2,1,4,14,,,,,1,12,28,13,0,6,6,2,,,,,,,,,2,1.0515885570002865,,,115,001,2019_Sep_23_1011,MusicAffectPsychophysiology2019,3.0.5,60.02233431012211,
To what extent did the music make you feel ,TENDER,30MonoWAV/30MonoT2.wav,2,1,4,14,,,,,1,12,28,13,0,7,7,10,,,,,,,,,1,0.685927365999305,,,115,001,2019_Sep_23_1011,MusicAffectPsychophysiology2019,3.0.5,60.02233431012211,
To what extent did the music make you feel ,ANXIOUS ,30MonoWAV/30MonoT2.wav,2,1,4,14,,,,,1,12,28,13,0,8,8,1,,,,,,,,,1,0.8197282010005438,,,115,001,2019_Sep_23_1011,MusicAffectPsychophysiology2019,3.0.5,60.02233431012211,
To what extent did the music make you feel ,EXCITED,30MonoWAV/30MonoT2.wav,2,1,4,14,,,,,1,12,28,13,0,9,9,7,,,,,,,,,1,0.6522541630001797,,,115,001,2019_Sep_23_1011,MusicAffectPsychophysiology2019,3.0.5,60.02233431012211,
To what extent did the music make you feel ,ASHAMED,30MonoWAV/30MonoT2.wav,2,1,4,14,,,,,1,12,28,13,0,10,10,4,,,,,,,,,2,1.1531482539994613,,,115,001,2019_Sep_23_1011,MusicAffectPsychophysiology2019,3.0.5,60.02233431012211,
To what extent did the music make you feel ,FRUSTRATED,30MonoWAV/30MonoT2.wav,2,1,4,14,,,,,1,12,28,13,0,11,11,3,,,,,,,,,2,0.7046468459993775,,,115,001,2019_Sep_23_1011,MusicAffectPsychophysiology2019,3.0.5,60.02233431012211,
,,30MonoWAV/30MonoT2.wav,2,1,4,14,,,,,1,12,28,13,,,,,,,,,,,,,,,,,115,001,2019_Sep_23_1011,MusicAffectPsychophysiology2019,3.0.5,60.02233431012211,
To what extent did the music make you feel ,ALERT,30MonoWAV/30MonoT3.wav,2,1,4,15,,,,,1,13,29,14,0,0,0,8,,,2,5.319007853000585,2,0.48519220799971663,2,1.3860570160013594,2,2.1863291159988876,,,115,001,2019_Sep_23_1011,MusicAffectPsychophysiology2019,3.0.5,60.02233431012211,
To what extent did the music make you feel ,ACTIVE,30MonoWAV/30MonoT3.wav,2,1,4,15,,,,,1,13,29,14,0,1,1,9,,,,,,,,,2,0.8189817809998203,,,115,001,2019_Sep_23_1011,MusicAffectPsychophysiology2019,3.0.5,60.02233431012211,
To what extent did the music make you feel ,FRUSTRATED,30MonoWAV/30MonoT3.wav,2,1,4,15,,,,,1,13,29,14,0,2,2,3,,,,,,,,,2,1.8832111289993918,,,115,001,2019_Sep_23_1011,MusicAffectPsychophysiology2019,3.0.5,60.02233431012211,
To what extent did the music make you feel ,SCARED,30MonoWAV/30MonoT3.wav,2,1,4,15,,,,,1,13,29,14,0,3,3,11,,,,,,,,,2,1.5196280409982137,,,115,001,2019_Sep_23_1011,MusicAffectPsychophysiology2019,3.0.5,60.02233431012211,
To what extent did the music make you feel ,ASHAMED,30MonoWAV/30MonoT3.wav,2,1,4,15,,,,,1,13,29,14,0,4,4,4,,,,,,,,,3,1.5690971500007436,,,115,001,2019_Sep_23_1011,MusicAffectPsychophysiology2019,3.0.5,60.02233431012211,
To what extent did the music make you feel ,ANXIOUS ,30MonoWAV/30MonoT3.wav,2,1,4,15,,,,,1,13,29,14,0,5,5,1,,,,,,,,,1,4.469186083999375,,,115,001,2019_Sep_23_1011,MusicAffectPsychophysiology2019,3.0.5,60.02233431012211,
To what extent did the music make you feel ,TENDER,30MonoWAV/30MonoT3.wav,2,1,4,15,,,,,1,13,29,14,0,6,6,10,,,,,,,,,2,1.985483791999286,,,115,001,2019_Sep_23_1011,MusicAffectPsychophysiology2019,3.0.5,60.02233431012211,
To what extent did the music make you feel ,ANGRY,30MonoWAV/30MonoT3.wav,2,1,4,15,,,,,1,13,29,14,0,7,7,2,,,,,,,,,1,1.2695449410002766,,,115,001,2019_Sep_23_1011,MusicAffectPsychophysiology2019,3.0.5,60.02233431012211,
To what extent did the music make you feel ,SAD,30MonoWAV/30MonoT3.wav,2,1,4,15,,,,,1,13,29,14,0,8,8,0,,,,,,,,,2,4.316485878000094,,,115,001,2019_Sep_23_1011,MusicAffectPsychophysiology2019,3.0.5,60.02233431012211,
To what extent did the music make you feel ,EXCITED,30MonoWAV/30MonoT3.wav,2,1,4,15,,,,,1,13,29,14,0,9,9,7,,,,,,,,,2,5.4017918549998285,,,115,001,2019_Sep_23_1011,MusicAffectPsychophysiology2019,3.0.5,60.02233431012211,
To what extent did the music make you feel ,GUILTY,30MonoWAV/30MonoT3.wav,2,1,4,15,,,,,1,13,29,14,0,10,10,5,,,,,,,,,1,1.3534646080006496,,,115,001,2019_Sep_23_1011,MusicAffectPsychophysiology2019,3.0.5,60.02233431012211,
To what extent did the music make you feel ,HAPPY,30MonoWAV/30MonoT3.wav,2,1,4,15,,,,,1,13,29,14,0,11,11,6,,,,,,,,,3,0.885061773000416,,,115,001,2019_Sep_23_1011,MusicAffectPsychophysiology2019,3.0.5,60.02233431012211,
,,30MonoWAV/30MonoT3.wav,2,1,4,15,,,,,1,13,29,14,,,,,,,,,,,,,,,,,115,001,2019_Sep_23_1011,MusicAffectPsychophysiology2019,3.0.5,60.02233431012211,
To what extent did the music make you feel ,GUILTY,30MonoWAV/30MonoH2.wav,2,2,1,6,,,,,1,14,30,5,0,0,0,5,,,3,3.152453422999315,3,0.8522294549984508,4,0.9832271570012381,1,1.108783363000839,,,115,001,2019_Sep_23_1011,MusicAffectPsychophysiology2019,3.0.5,60.02233431012211,
To what extent did the music make you feel ,ACTIVE,30MonoWAV/30MonoH2.wav,2,2,1,6,,,,,1,14,30,5,0,1,1,9,,,,,,,,,3,0.869235572999969,,,115,001,2019_Sep_23_1011,MusicAffectPsychophysiology2019,3.0.5,60.02233431012211,
To what extent did the music make you feel ,ANXIOUS ,30MonoWAV/30MonoH2.wav,2,2,1,6,,,,,1,14,30,5,0,2,2,1,,,,,,,,,3,1.3863683509989642,,,115,001,2019_Sep_23_1011,MusicAffectPsychophysiology2019,3.0.5,60.02233431012211,
To what extent did the music make you feel ,ANGRY,30MonoWAV/30MonoH2.wav,2,2,1,6,,,,,1,14,30,5,0,3,3,2,,,,,,,,,1,1.2349420509999618,,,115,001,2019_Sep_23_1011,MusicAffectPsychophysiology2019,3.0.5,60.02233431012211,
To what extent did the music make you feel ,ASHAMED,30MonoWAV/30MonoH2.wav,2,2,1,6,,,,,1,14,30,5,0,4,4,4,,,,,,,,,1,1.185022129000572,,,115,001,2019_Sep_23_1011,MusicAffectPsychophysiology2019,3.0.5,60.02233431012211,
To what extent did the music make you feel ,EXCITED,30MonoWAV/30MonoH2.wav,2,2,1,6,,,,,1,14,30,5,0,5,5,7,,,,,,,,,3,0.935908097999345,,,115,001,2019_Sep_23_1011,MusicAffectPsychophysiology2019,3.0.5,60.02233431012211,
To what extent did the music make you feel ,FRUSTRATED,30MonoWAV/30MonoH2.wav,2,2,1,6,,,,,1,14,30,5,0,6,6,3,,,,,,,,,1,0.9389583769989258,,,115,001,2019_Sep_23_1011,MusicAffectPsychophysiology2019,3.0.5,60.02233431012211,
To what extent did the music make you feel ,SAD,30MonoWAV/30MonoH2.wav,2,2,1,6,,,,,1,14,30,5,0,7,7,0,,,,,,,,,1,1.0696822709996923,,,115,001,2019_Sep_23_1011,MusicAffectPsychophysiology2019,3.0.5,60.02233431012211,
To what extent did the music make you feel ,HAPPY,30MonoWAV/30MonoH2.wav,2,2,1,6,,,,,1,14,30,5,0,8,8,6,,,,,,,,,3,1.3680241249985556,,,115,001,2019_Sep_23_1011,MusicAffectPsychophysiology2019,3.0.5,60.02233431012211,
To what extent did the music make you feel ,ALERT,30MonoWAV/30MonoH2.wav,2,2,1,6,,,,,1,14,30,5,0,9,9,8,,,,,,,,,3,1.1190365570000722,,,115,001,2019_Sep_23_1011,MusicAffectPsychophysiology2019,3.0.5,60.02233431012211,
To what extent did the music make you feel ,SCARED,30MonoWAV/30MonoH2.wav,2,2,1,6,,,,,1,14,30,5,0,10,10,11,,,,,,,,,2,2.951992538999548,,,115,001,2019_Sep_23_1011,MusicAffectPsychophysiology2019,3.0.5,60.02233431012211,
To what extent did the music make you feel ,TENDER,30MonoWAV/30MonoH2.wav,2,2,1,6,,,,,1,14,30,5,0,11,11,10,,,,,,,,,2,0.8827191039999889,,,115,001,2019_Sep_23_1011,MusicAffectPsychophysiology2019,3.0.5,60.02233431012211,
,,30MonoWAV/30MonoH2.wav,2,2,1,6,,,,,1,14,30,5,,,,,,,,,,,,,,,,,115,001,2019_Sep_23_1011,MusicAffectPsychophysiology2019,3.0.5,60.02233431012211,
To what extent did the music make you feel ,ANXIOUS ,30MonoWAV/30MonoT4.wav,2,1,4,16,,,,,1,15,31,15,0,0,0,1,,,1,1.9858512169994356,1,1.4667283090002456,2,1.252774917998977,1,0.9846944029995939,,,115,001,2019_Sep_23_1011,MusicAffectPsychophysiology2019,3.0.5,60.02233431012211,
To what extent did the music make you feel ,HAPPY,30MonoWAV/30MonoT4.wav,2,1,4,16,,,,,1,15,31,15,0,1,1,6,,,,,,,,,1,0.7524888399984775,,,115,001,2019_Sep_23_1011,MusicAffectPsychophysiology2019,3.0.5,60.02233431012211,
To what extent did the music make you feel ,ASHAMED,30MonoWAV/30MonoT4.wav,2,1,4,16,,,,,1,15,31,15,0,2,2,4,,,,,,,,,1,0.9023734719994536,,,115,001,2019_Sep_23_1011,MusicAffectPsychophysiology2019,3.0.5,60.02233431012211,
To what extent did the music make you feel ,ANGRY,30MonoWAV/30MonoT4.wav,2,1,4,16,,,,,1,15,31,15,0,3,3,2,,,,,,,,,1,0.9859476920009911,,,115,001,2019_Sep_23_1011,MusicAffectPsychophysiology2019,3.0.5,60.02233431012211,
To what extent did the music make you feel ,ACTIVE,30MonoWAV/30MonoT4.wav,2,1,4,16,,,,,1,15,31,15,0,4,4,9,,,,,,,,,1,1.41810920700118,,,115,001,2019_Sep_23_1011,MusicAffectPsychophysiology2019,3.0.5,60.02233431012211,
To what extent did the music make you feel ,SAD,30MonoWAV/30MonoT4.wav,2,1,4,16,,,,,1,15,31,15,0,5,5,0,,,,,,,,,2,1.0001406669998687,,,115,001,2019_Sep_23_1011,MusicAffectPsychophysiology2019,3.0.5,60.02233431012211,
To what extent did the music make you feel ,ALERT,30MonoWAV/30MonoT4.wav,2,1,4,16,,,,,1,15,31,15,0,6,6,8,,,,,,,,,1,1.1840021690004505,,,115,001,2019_Sep_23_1011,MusicAffectPsychophysiology2019,3.0.5,60.02233431012211,
To what extent did the music make you feel ,FRUSTRATED,30MonoWAV/30MonoT4.wav,2,1,4,16,,,,,1,15,31,15,0,7,7,3,,,,,,,,,2,1.0190634179998597,,,115,001,2019_Sep_23_1011,MusicAffectPsychophysiology2019,3.0.5,60.02233431012211,
To what extent did the music make you feel ,EXCITED,30MonoWAV/30MonoT4.wav,2,1,4,16,,,,,1,15,31,15,0,8,8,7,,,,,,,,,2,1.9183921359999658,,,115,001,2019_Sep_23_1011,MusicAffectPsychophysiology2019,3.0.5,60.02233431012211,
To what extent did the music make you feel ,TENDER,30MonoWAV/30MonoT4.wav,2,1,4,16,,,,,1,15,31,15,0,9,9,10,,,,,,,,,2,0.8021076549994177,,,115,001,2019_Sep_23_1011,MusicAffectPsychophysiology2019,3.0.5,60.02233431012211,
To what extent did the music make you feel ,SCARED,30MonoWAV/30MonoT4.wav,2,1,4,16,,,,,1,15,31,15,0,10,10,11,,,,,,,,,2,1.5188449779998336,,,115,001,2019_Sep_23_1011,MusicAffectPsychophysiology2019,3.0.5,60.02233431012211,
To what extent did the music make you feel ,GUILTY,30MonoWAV/30MonoT4.wav,2,1,4,16,,,,,1,15,31,15,0,11,11,5,,,,,,,,,2,1.3520139520005614,,,115,001,2019_Sep_23_1011,MusicAffectPsychophysiology2019,3.0.5,60.02233431012211,
,,30MonoWAV/30MonoT4.wav,2,1,4,16,,,,,1,15,31,15,,,,,,,,,,,,,,,,,115,001,2019_Sep_23_1011,MusicAffectPsychophysiology2019,3.0.5,60.02233431012211,
,,,,,,,,,,,,,,,,,,,,,,,,,,,,,space,4.634927642999173,115,001,2019_Sep_23_1011,MusicAffectPsychophysiology2019,3.0.5,60.02233431012211,
