Instruction,Word,song,valence,arousal,affectcat,songmark,pracwords.thisRepN,pracwords.thisTrialN,pracwords.thisN,pracwords.thisIndex,songtrials.thisRepN,songtrials.thisTrialN,songtrials.thisN,songtrials.thisIndex,words.thisRepN,words.thisTrialN,words.thisN,words.thisIndex,begin.keys,begin.rt,arousalkey.keys,arousalkey.rt,valencekey.keys,valencekey.rt,likekey.keys,likekey.rt,WordResponse.keys,WordResponse.rt,participant,session,date,expName,psychopyVersion,frameRate,
,,,,,,,,,,,,,,,,,,,space,14.695815268000018,,,,,,,,,116,001,2019_Sep_26_1115,MusicAffectPsychophysiology2019,3.0.5,None,
,,,,,,,,,,,,,,,,,,,,,2,4.468308954999998,,,,,,,116,001,2019_Sep_26_1115,MusicAffectPsychophysiology2019,3.0.5,None,
,,,,,,,,,,,,,,,,,,,,,,,3,4.4692578319999825,,,,,116,001,2019_Sep_26_1115,MusicAffectPsychophysiology2019,3.0.5,None,
,,,,,,,,,,,,,,,,,,,,,,,,,2,3.436700820999988,,,116,001,2019_Sep_26_1115,MusicAffectPsychophysiology2019,3.0.5,None,
To what extent did the music make you feel ,FRUSTRATED,,,,,,0,0,0,3,,,,,,,,,,,,,,,,,1,4.489225500999993,116,001,2019_Sep_26_1115,MusicAffectPsychophysiology2019,3.0.5,None,
To what extent did the music make you feel ,SCARED,,,,,,0,1,1,11,,,,,,,,,,,,,,,,,1,2.0499472230000038,116,001,2019_Sep_26_1115,MusicAffectPsychophysiology2019,3.0.5,None,
To what extent did the music make you feel ,ANXIOUS ,,,,,,0,2,2,1,,,,,,,,,,,,,,,,,1,1.4018973080000023,116,001,2019_Sep_26_1115,MusicAffectPsychophysiology2019,3.0.5,None,
To what extent did the music make you feel ,HAPPY,,,,,,0,3,3,6,,,,,,,,,,,,,,,,,3,2.969253674999976,116,001,2019_Sep_26_1115,MusicAffectPsychophysiology2019,3.0.5,None,
To what extent did the music make you feel ,ASHAMED,,,,,,0,4,4,4,,,,,,,,,,,,,,,,,1,1.467957403000014,116,001,2019_Sep_26_1115,MusicAffectPsychophysiology2019,3.0.5,None,
To what extent did the music make you feel ,SAD,,,,,,0,5,5,0,,,,,,,,,,,,,,,,,1,1.5176821480000058,116,001,2019_Sep_26_1115,MusicAffectPsychophysiology2019,3.0.5,None,
To what extent did the music make you feel ,ACTIVE,,,,,,0,6,6,9,,,,,,,,,,,,,,,,,3,2.7197102910000126,116,001,2019_Sep_26_1115,MusicAffectPsychophysiology2019,3.0.5,None,
To what extent did the music make you feel ,GUILTY,,,,,,0,7,7,5,,,,,,,,,,,,,,,,,1,2.335212922000011,116,001,2019_Sep_26_1115,MusicAffectPsychophysiology2019,3.0.5,None,
To what extent did the music make you feel ,EXCITED,,,,,,0,8,8,7,,,,,,,,,,,,,,,,,2,2.287203887000004,116,001,2019_Sep_26_1115,MusicAffectPsychophysiology2019,3.0.5,None,
To what extent did the music make you feel ,ANGRY,,,,,,0,9,9,2,,,,,,,,,,,,,,,,,1,1.267365161000015,116,001,2019_Sep_26_1115,MusicAffectPsychophysiology2019,3.0.5,None,
To what extent did the music make you feel ,ALERT,,,,,,0,10,10,8,,,,,,,,,,,,,,,,,2,2.9503490820000025,116,001,2019_Sep_26_1115,MusicAffectPsychophysiology2019,3.0.5,None,
To what extent did the music make you feel ,TENDER,,,,,,0,11,11,10,,,,,,,,,,,,,,,,,2,5.433714825999999,116,001,2019_Sep_26_1115,MusicAffectPsychophysiology2019,3.0.5,None,
To what extent did the music make you feel ,ANGRY,30MonoWAV/30MonoT2.wav,2,1,4,14,,,,,0,0,0,13,0,0,0,2,,,2,4.934317281999995,2,7.084588251000014,2,5.899853450000023,1,1.9869634389999646,116,001,2019_Sep_26_1115,MusicAffectPsychophysiology2019,3.0.5,None,
To what extent did the music make you feel ,SCARED,30MonoWAV/30MonoT2.wav,2,1,4,14,,,,,0,0,0,13,0,1,1,11,,,,,,,,,1,2.901906216000043,116,001,2019_Sep_26_1115,MusicAffectPsychophysiology2019,3.0.5,None,
To what extent did the music make you feel ,ASHAMED,30MonoWAV/30MonoT2.wav,2,1,4,14,,,,,0,0,0,13,0,2,2,4,,,,,,,,,1,2.3018483889999857,116,001,2019_Sep_26_1115,MusicAffectPsychophysiology2019,3.0.5,None,
To what extent did the music make you feel ,GUILTY,30MonoWAV/30MonoT2.wav,2,1,4,14,,,,,0,0,0,13,0,3,3,5,,,,,,,,,1,1.7692798179999727,116,001,2019_Sep_26_1115,MusicAffectPsychophysiology2019,3.0.5,None,
To what extent did the music make you feel ,ALERT,30MonoWAV/30MonoT2.wav,2,1,4,14,,,,,0,0,0,13,0,4,4,8,,,,,,,,,2,2.0696982829999797,116,001,2019_Sep_26_1115,MusicAffectPsychophysiology2019,3.0.5,None,
To what extent did the music make you feel ,ACTIVE,30MonoWAV/30MonoT2.wav,2,1,4,14,,,,,0,0,0,13,0,5,5,9,,,,,,,,,1,2.6867878709999786,116,001,2019_Sep_26_1115,MusicAffectPsychophysiology2019,3.0.5,None,
To what extent did the music make you feel ,EXCITED,30MonoWAV/30MonoT2.wav,2,1,4,14,,,,,0,0,0,13,0,6,6,7,,,,,,,,,1,2.7363597720000143,116,001,2019_Sep_26_1115,MusicAffectPsychophysiology2019,3.0.5,None,
To what extent did the music make you feel ,HAPPY,30MonoWAV/30MonoT2.wav,2,1,4,14,,,,,0,0,0,13,0,7,7,6,,,,,,,,,2,2.8523020819999942,116,001,2019_Sep_26_1115,MusicAffectPsychophysiology2019,3.0.5,None,
To what extent did the music make you feel ,SAD,30MonoWAV/30MonoT2.wav,2,1,4,14,,,,,0,0,0,13,0,8,8,0,,,,,,,,,3,1.9690414280000255,116,001,2019_Sep_26_1115,MusicAffectPsychophysiology2019,3.0.5,None,
To what extent did the music make you feel ,ANXIOUS ,30MonoWAV/30MonoT2.wav,2,1,4,14,,,,,0,0,0,13,0,9,9,1,,,,,,,,,2,2.068312022999976,116,001,2019_Sep_26_1115,MusicAffectPsychophysiology2019,3.0.5,None,
To what extent did the music make you feel ,TENDER,30MonoWAV/30MonoT2.wav,2,1,4,14,,,,,0,0,0,13,0,10,10,10,,,,,,,,,2,1.5667402809999658,116,001,2019_Sep_26_1115,MusicAffectPsychophysiology2019,3.0.5,None,
To what extent did the music make you feel ,FRUSTRATED,30MonoWAV/30MonoT2.wav,2,1,4,14,,,,,0,0,0,13,0,11,11,3,,,,,,,,,1,2.93580848900001,116,001,2019_Sep_26_1115,MusicAffectPsychophysiology2019,3.0.5,None,
,,30MonoWAV/30MonoT2.wav,2,1,4,14,,,,,0,0,0,13,,,,,,,,,,,,,,,116,001,2019_Sep_26_1115,MusicAffectPsychophysiology2019,3.0.5,None,
To what extent did the music make you feel ,FRUSTRATED,30MonoWAV/30MonoH1.wav,2,2,1,5,,,,,0,1,1,4,0,0,0,3,,,2,4.519269858999962,2,5.686964869000008,1,4.268950270999994,3,3.8872065959999986,116,001,2019_Sep_26_1115,MusicAffectPsychophysiology2019,3.0.5,None,
To what extent did the music make you feel ,ALERT,30MonoWAV/30MonoH1.wav,2,2,1,5,,,,,0,1,1,4,0,1,1,8,,,,,,,,,2,2.38433982600003,116,001,2019_Sep_26_1115,MusicAffectPsychophysiology2019,3.0.5,None,
To what extent did the music make you feel ,GUILTY,30MonoWAV/30MonoH1.wav,2,2,1,5,,,,,0,1,1,4,0,2,2,5,,,,,,,,,1,1.3337825450000196,116,001,2019_Sep_26_1115,MusicAffectPsychophysiology2019,3.0.5,None,
To what extent did the music make you feel ,ANXIOUS ,30MonoWAV/30MonoH1.wav,2,2,1,5,,,,,0,1,1,4,0,3,3,1,,,,,,,,,2,1.769195916000001,116,001,2019_Sep_26_1115,MusicAffectPsychophysiology2019,3.0.5,None,
To what extent did the music make you feel ,EXCITED,30MonoWAV/30MonoH1.wav,2,2,1,5,,,,,0,1,1,4,0,4,4,7,,,,,,,,,1,1.4335611970000173,116,001,2019_Sep_26_1115,MusicAffectPsychophysiology2019,3.0.5,None,
To what extent did the music make you feel ,SCARED,30MonoWAV/30MonoH1.wav,2,2,1,5,,,,,0,1,1,4,0,5,5,11,,,,,,,,,2,1.6693816229999925,116,001,2019_Sep_26_1115,MusicAffectPsychophysiology2019,3.0.5,None,
To what extent did the music make you feel ,ASHAMED,30MonoWAV/30MonoH1.wav,2,2,1,5,,,,,0,1,1,4,0,6,6,4,,,,,,,,,1,1.2198528069999952,116,001,2019_Sep_26_1115,MusicAffectPsychophysiology2019,3.0.5,None,
To what extent did the music make you feel ,TENDER,30MonoWAV/30MonoH1.wav,2,2,1,5,,,,,0,1,1,4,0,7,7,10,,,,,,,,,1,1.6493970269999636,116,001,2019_Sep_26_1115,MusicAffectPsychophysiology2019,3.0.5,None,
To what extent did the music make you feel ,ANGRY,30MonoWAV/30MonoH1.wav,2,2,1,5,,,,,0,1,1,4,0,8,8,2,,,,,,,,,1,4.268714209999985,116,001,2019_Sep_26_1115,MusicAffectPsychophysiology2019,3.0.5,None,
To what extent did the music make you feel ,HAPPY,30MonoWAV/30MonoH1.wav,2,2,1,5,,,,,0,1,1,4,0,9,9,6,,,,,,,,,1,3.2684723090000034,116,001,2019_Sep_26_1115,MusicAffectPsychophysiology2019,3.0.5,None,
To what extent did the music make you feel ,ACTIVE,30MonoWAV/30MonoH1.wav,2,2,1,5,,,,,0,1,1,4,0,10,10,9,,,,,,,,,3,5.449091186000032,116,001,2019_Sep_26_1115,MusicAffectPsychophysiology2019,3.0.5,None,
To what extent did the music make you feel ,SAD,30MonoWAV/30MonoH1.wav,2,2,1,5,,,,,0,1,1,4,0,11,11,0,,,,,,,,,1,1.8026355040000226,116,001,2019_Sep_26_1115,MusicAffectPsychophysiology2019,3.0.5,None,
,,30MonoWAV/30MonoH1.wav,2,2,1,5,,,,,0,1,1,4,,,,,,,,,,,,,,,116,001,2019_Sep_26_1115,MusicAffectPsychophysiology2019,3.0.5,None,
To what extent did the music make you feel ,GUILTY,30MonoWAV/30MonoT1.wav,2,1,4,13,,,,,0,2,2,12,0,0,0,5,,,1,5.38523091899998,2,4.01895073999998,3,8.467900901999997,1,2.675717643999974,116,001,2019_Sep_26_1115,MusicAffectPsychophysiology2019,3.0.5,None,
To what extent did the music make you feel ,FRUSTRATED,30MonoWAV/30MonoT1.wav,2,1,4,13,,,,,0,2,2,12,0,1,1,3,,,,,,,,,1,1.4367929009999898,116,001,2019_Sep_26_1115,MusicAffectPsychophysiology2019,3.0.5,None,
To what extent did the music make you feel ,EXCITED,30MonoWAV/30MonoT1.wav,2,1,4,13,,,,,0,2,2,12,0,2,2,7,,,,,,,,,1,2.518389289999959,116,001,2019_Sep_26_1115,MusicAffectPsychophysiology2019,3.0.5,None,
To what extent did the music make you feel ,SAD,30MonoWAV/30MonoT1.wav,2,1,4,13,,,,,0,2,2,12,0,3,3,0,,,,,,,,,3,1.468377970000006,116,001,2019_Sep_26_1115,MusicAffectPsychophysiology2019,3.0.5,None,
To what extent did the music make you feel ,ALERT,30MonoWAV/30MonoT1.wav,2,1,4,13,,,,,0,2,2,12,0,4,4,8,,,,,,,,,1,2.5700237579999907,116,001,2019_Sep_26_1115,MusicAffectPsychophysiology2019,3.0.5,None,
To what extent did the music make you feel ,ACTIVE,30MonoWAV/30MonoT1.wav,2,1,4,13,,,,,0,2,2,12,0,5,5,9,,,,,,,,,1,2.1352447269999857,116,001,2019_Sep_26_1115,MusicAffectPsychophysiology2019,3.0.5,None,
To what extent did the music make you feel ,ANGRY,30MonoWAV/30MonoT1.wav,2,1,4,13,,,,,0,2,2,12,0,6,6,2,,,,,,,,,1,1.385909115000004,116,001,2019_Sep_26_1115,MusicAffectPsychophysiology2019,3.0.5,None,
To what extent did the music make you feel ,SCARED,30MonoWAV/30MonoT1.wav,2,1,4,13,,,,,0,2,2,12,0,7,7,11,,,,,,,,,2,1.5029756249999764,116,001,2019_Sep_26_1115,MusicAffectPsychophysiology2019,3.0.5,None,
To what extent did the music make you feel ,ANXIOUS ,30MonoWAV/30MonoT1.wav,2,1,4,13,,,,,0,2,2,12,0,8,8,1,,,,,,,,,2,2.6695426299999667,116,001,2019_Sep_26_1115,MusicAffectPsychophysiology2019,3.0.5,None,
To what extent did the music make you feel ,TENDER,30MonoWAV/30MonoT1.wav,2,1,4,13,,,,,0,2,2,12,0,9,9,10,,,,,,,,,2,1.6371031950000088,116,001,2019_Sep_26_1115,MusicAffectPsychophysiology2019,3.0.5,None,
To what extent did the music make you feel ,ASHAMED,30MonoWAV/30MonoT1.wav,2,1,4,13,,,,,0,2,2,12,0,10,10,4,,,,,,,,,1,1.1515142970000056,116,001,2019_Sep_26_1115,MusicAffectPsychophysiology2019,3.0.5,None,
To what extent did the music make you feel ,HAPPY,30MonoWAV/30MonoT1.wav,2,1,4,13,,,,,0,2,2,12,0,11,11,6,,,,,,,,,1,4.886157949999983,116,001,2019_Sep_26_1115,MusicAffectPsychophysiology2019,3.0.5,None,
,,30MonoWAV/30MonoT1.wav,2,1,4,13,,,,,0,2,2,12,,,,,,,,,,,,,,,116,001,2019_Sep_26_1115,MusicAffectPsychophysiology2019,3.0.5,None,
To what extent did the music make you feel ,SAD,30MonoWAV/30MonoS1.wav,1,1,3,9,,,,,0,3,3,8,0,0,0,0,,,2,4.933636997999997,1,2.219255962000034,4,2.801965745000075,4,2.8305467779999844,116,001,2019_Sep_26_1115,MusicAffectPsychophysiology2019,3.0.5,None,
To what extent did the music make you feel ,ALERT,30MonoWAV/30MonoS1.wav,1,1,3,9,,,,,0,3,3,8,0,1,1,8,,,,,,,,,4,1.919208620000063,116,001,2019_Sep_26_1115,MusicAffectPsychophysiology2019,3.0.5,None,
To what extent did the music make you feel ,ACTIVE,30MonoWAV/30MonoS1.wav,1,1,3,9,,,,,0,3,3,8,0,2,2,9,,,,,,,,,3,1.7355556820000402,116,001,2019_Sep_26_1115,MusicAffectPsychophysiology2019,3.0.5,None,
To what extent did the music make you feel ,ASHAMED,30MonoWAV/30MonoS1.wav,1,1,3,9,,,,,0,3,3,8,0,3,3,4,,,,,,,,,2,4.1365958359999695,116,001,2019_Sep_26_1115,MusicAffectPsychophysiology2019,3.0.5,None,
To what extent did the music make you feel ,ANGRY,30MonoWAV/30MonoS1.wav,1,1,3,9,,,,,0,3,3,8,0,4,4,2,,,,,,,,,1,5.1680280549999225,116,001,2019_Sep_26_1115,MusicAffectPsychophysiology2019,3.0.5,None,
To what extent did the music make you feel ,FRUSTRATED,30MonoWAV/30MonoS1.wav,1,1,3,9,,,,,0,3,3,8,0,5,5,3,,,,,,,,,2,1.7014037369999642,116,001,2019_Sep_26_1115,MusicAffectPsychophysiology2019,3.0.5,None,
To what extent did the music make you feel ,HAPPY,30MonoWAV/30MonoS1.wav,1,1,3,9,,,,,0,3,3,8,0,6,6,6,,,,,,,,,1,2.183136314999956,116,001,2019_Sep_26_1115,MusicAffectPsychophysiology2019,3.0.5,None,
To what extent did the music make you feel ,TENDER,30MonoWAV/30MonoS1.wav,1,1,3,9,,,,,0,3,3,8,0,7,7,10,,,,,,,,,1,1.7182328860000098,116,001,2019_Sep_26_1115,MusicAffectPsychophysiology2019,3.0.5,None,
To what extent did the music make you feel ,ANXIOUS ,30MonoWAV/30MonoS1.wav,1,1,3,9,,,,,0,3,3,8,0,8,8,1,,,,,,,,,3,2.5853070959999513,116,001,2019_Sep_26_1115,MusicAffectPsychophysiology2019,3.0.5,None,
To what extent did the music make you feel ,SCARED,30MonoWAV/30MonoS1.wav,1,1,3,9,,,,,0,3,3,8,0,9,9,11,,,,,,,,,3,1.5181232339999724,116,001,2019_Sep_26_1115,MusicAffectPsychophysiology2019,3.0.5,None,
To what extent did the music make you feel ,GUILTY,30MonoWAV/30MonoS1.wav,1,1,3,9,,,,,0,3,3,8,0,10,10,5,,,,,,,,,1,1.1681979940000247,116,001,2019_Sep_26_1115,MusicAffectPsychophysiology2019,3.0.5,None,
To what extent did the music make you feel ,EXCITED,30MonoWAV/30MonoS1.wav,1,1,3,9,,,,,0,3,3,8,0,11,11,7,,,,,,,,,1,1.6013845510000237,116,001,2019_Sep_26_1115,MusicAffectPsychophysiology2019,3.0.5,None,
,,30MonoWAV/30MonoS1.wav,1,1,3,9,,,,,0,3,3,8,,,,,,,,,,,,,,,116,001,2019_Sep_26_1115,MusicAffectPsychophysiology2019,3.0.5,None,
To what extent did the music make you feel ,FRUSTRATED,30MonoWAV/30MonoT4.wav,2,1,4,16,,,,,0,4,4,15,0,0,0,3,,,4,5.252121177000049,3,2.3358441279999624,3,2.1193618700000343,1,3.621471266999947,116,001,2019_Sep_26_1115,MusicAffectPsychophysiology2019,3.0.5,None,
To what extent did the music make you feel ,ANGRY,30MonoWAV/30MonoT4.wav,2,1,4,16,,,,,0,4,4,15,0,1,1,2,,,,,,,,,1,1.1185760779999327,116,001,2019_Sep_26_1115,MusicAffectPsychophysiology2019,3.0.5,None,
To what extent did the music make you feel ,ALERT,30MonoWAV/30MonoT4.wav,2,1,4,16,,,,,0,4,4,15,0,2,2,8,,,,,,,,,4,3.350075340999979,116,001,2019_Sep_26_1115,MusicAffectPsychophysiology2019,3.0.5,None,
To what extent did the music make you feel ,EXCITED,30MonoWAV/30MonoT4.wav,2,1,4,16,,,,,0,4,4,15,0,3,3,7,,,,,,,,,3,2.2004287729999987,116,001,2019_Sep_26_1115,MusicAffectPsychophysiology2019,3.0.5,None,
To what extent did the music make you feel ,HAPPY,30MonoWAV/30MonoT4.wav,2,1,4,16,,,,,0,4,4,15,0,4,4,6,,,,,,,,,3,2.685533165000038,116,001,2019_Sep_26_1115,MusicAffectPsychophysiology2019,3.0.5,None,
To what extent did the music make you feel ,SAD,30MonoWAV/30MonoT4.wav,2,1,4,16,,,,,0,4,4,15,0,5,5,0,,,,,,,,,1,1.252437083000018,116,001,2019_Sep_26_1115,MusicAffectPsychophysiology2019,3.0.5,None,
To what extent did the music make you feel ,ANXIOUS ,30MonoWAV/30MonoT4.wav,2,1,4,16,,,,,0,4,4,15,0,6,6,1,,,,,,,,,2,1.3860195729999987,116,001,2019_Sep_26_1115,MusicAffectPsychophysiology2019,3.0.5,None,
To what extent did the music make you feel ,TENDER,30MonoWAV/30MonoT4.wav,2,1,4,16,,,,,0,4,4,15,0,7,7,10,,,,,,,,,2,1.3184615259999646,116,001,2019_Sep_26_1115,MusicAffectPsychophysiology2019,3.0.5,None,
To what extent did the music make you feel ,SCARED,30MonoWAV/30MonoT4.wav,2,1,4,16,,,,,0,4,4,15,0,8,8,11,,,,,,,,,2,2.118970384000022,116,001,2019_Sep_26_1115,MusicAffectPsychophysiology2019,3.0.5,None,
To what extent did the music make you feel ,ACTIVE,30MonoWAV/30MonoT4.wav,2,1,4,16,,,,,0,4,4,15,0,9,9,9,,,,,,,,,3,2.102744008000059,116,001,2019_Sep_26_1115,MusicAffectPsychophysiology2019,3.0.5,None,
To what extent did the music make you feel ,ASHAMED,30MonoWAV/30MonoT4.wav,2,1,4,16,,,,,0,4,4,15,0,10,10,4,,,,,,,,,1,1.235622410000019,116,001,2019_Sep_26_1115,MusicAffectPsychophysiology2019,3.0.5,None,
To what extent did the music make you feel ,GUILTY,30MonoWAV/30MonoT4.wav,2,1,4,16,,,,,0,4,4,15,0,11,11,5,,,,,,,,,1,1.3022019740000133,116,001,2019_Sep_26_1115,MusicAffectPsychophysiology2019,3.0.5,None,
,,30MonoWAV/30MonoT4.wav,2,1,4,16,,,,,0,4,4,15,,,,,,,,,,,,,,,116,001,2019_Sep_26_1115,MusicAffectPsychophysiology2019,3.0.5,None,
To what extent did the music make you feel ,ANGRY,30MonoWAV/30MonoF4.wav,1,2,2,4,,,,,0,5,5,3,0,0,0,2,,,3,3.983472617000075,1,2.752472723999972,1,2.102776429000073,1,4.163503889000026,116,001,2019_Sep_26_1115,MusicAffectPsychophysiology2019,3.0.5,None,
To what extent did the music make you feel ,ASHAMED,30MonoWAV/30MonoF4.wav,1,2,2,4,,,,,0,5,5,3,0,1,1,4,,,,,,,,,1,1.2013229350000074,116,001,2019_Sep_26_1115,MusicAffectPsychophysiology2019,3.0.5,None,
To what extent did the music make you feel ,ANXIOUS ,30MonoWAV/30MonoF4.wav,1,2,2,4,,,,,0,5,5,3,0,2,2,1,,,,,,,,,4,3.119468809000068,116,001,2019_Sep_26_1115,MusicAffectPsychophysiology2019,3.0.5,None,
To what extent did the music make you feel ,FRUSTRATED,30MonoWAV/30MonoF4.wav,1,2,2,4,,,,,0,5,5,3,0,3,3,3,,,,,,,,,2,1.6528481310000416,116,001,2019_Sep_26_1115,MusicAffectPsychophysiology2019,3.0.5,None,
To what extent did the music make you feel ,GUILTY,30MonoWAV/30MonoF4.wav,1,2,2,4,,,,,0,5,5,3,0,4,4,5,,,,,,,,,1,1.1845145340000727,116,001,2019_Sep_26_1115,MusicAffectPsychophysiology2019,3.0.5,None,
To what extent did the music make you feel ,EXCITED,30MonoWAV/30MonoF4.wav,1,2,2,4,,,,,0,5,5,3,0,5,5,7,,,,,,,,,1,1.3498490360000233,116,001,2019_Sep_26_1115,MusicAffectPsychophysiology2019,3.0.5,None,
To what extent did the music make you feel ,ALERT,30MonoWAV/30MonoF4.wav,1,2,2,4,,,,,0,5,5,3,0,6,6,8,,,,,,,,,5,2.802082947000031,116,001,2019_Sep_26_1115,MusicAffectPsychophysiology2019,3.0.5,None,
To what extent did the music make you feel ,SAD,30MonoWAV/30MonoF4.wav,1,2,2,4,,,,,0,5,5,3,0,7,7,0,,,,,,,,,1,1.6023114609999993,116,001,2019_Sep_26_1115,MusicAffectPsychophysiology2019,3.0.5,None,
To what extent did the music make you feel ,TENDER,30MonoWAV/30MonoF4.wav,1,2,2,4,,,,,0,5,5,3,0,8,8,10,,,,,,,,,3,3.7680631709999943,116,001,2019_Sep_26_1115,MusicAffectPsychophysiology2019,3.0.5,None,
To what extent did the music make you feel ,ACTIVE,30MonoWAV/30MonoF4.wav,1,2,2,4,,,,,0,5,5,3,0,9,9,9,,,,,,,,,2,4.518947888999946,116,001,2019_Sep_26_1115,MusicAffectPsychophysiology2019,3.0.5,None,
To what extent did the music make you feel ,HAPPY,30MonoWAV/30MonoF4.wav,1,2,2,4,,,,,0,5,5,3,0,10,10,6,,,,,,,,,1,1.0020618490000288,116,001,2019_Sep_26_1115,MusicAffectPsychophysiology2019,3.0.5,None,
To what extent did the music make you feel ,SCARED,30MonoWAV/30MonoF4.wav,1,2,2,4,,,,,0,5,5,3,0,11,11,11,,,,,,,,,5,2.1192965249999816,116,001,2019_Sep_26_1115,MusicAffectPsychophysiology2019,3.0.5,None,
,,30MonoWAV/30MonoF4.wav,1,2,2,4,,,,,0,5,5,3,,,,,,,,,,,,,,,116,001,2019_Sep_26_1115,MusicAffectPsychophysiology2019,3.0.5,None,
To what extent did the music make you feel ,HAPPY,30MonoWAV/30MonoF2.wav,1,2,2,2,,,,,0,6,6,1,0,0,0,6,,,3,5.599684021999906,3,1.053385521999985,1,3.0177275780000627,1,1.3887431809999953,116,001,2019_Sep_26_1115,MusicAffectPsychophysiology2019,3.0.5,None,
To what extent did the music make you feel ,ANGRY,30MonoWAV/30MonoF2.wav,1,2,2,2,,,,,0,6,6,1,0,1,1,2,,,,,,,,,1,2.3846992750000027,116,001,2019_Sep_26_1115,MusicAffectPsychophysiology2019,3.0.5,None,
To what extent did the music make you feel ,EXCITED,30MonoWAV/30MonoF2.wav,1,2,2,2,,,,,0,6,6,1,0,2,2,7,,,,,,,,,1,1.2526401739999073,116,001,2019_Sep_26_1115,MusicAffectPsychophysiology2019,3.0.5,None,
To what extent did the music make you feel ,SAD,30MonoWAV/30MonoF2.wav,1,2,2,2,,,,,0,6,6,1,0,3,3,0,,,,,,,,,1,1.302459966000015,116,001,2019_Sep_26_1115,MusicAffectPsychophysiology2019,3.0.5,None,
To what extent did the music make you feel ,ACTIVE,30MonoWAV/30MonoF2.wav,1,2,2,2,,,,,0,6,6,1,0,4,4,9,,,,,,,,,3,1.6675158099999408,116,001,2019_Sep_26_1115,MusicAffectPsychophysiology2019,3.0.5,None,
To what extent did the music make you feel ,ASHAMED,30MonoWAV/30MonoF2.wav,1,2,2,2,,,,,0,6,6,1,0,5,5,4,,,,,,,,,1,1.2185171260000516,116,001,2019_Sep_26_1115,MusicAffectPsychophysiology2019,3.0.5,None,
To what extent did the music make you feel ,ANXIOUS ,30MonoWAV/30MonoF2.wav,1,2,2,2,,,,,0,6,6,1,0,6,6,1,,,,,,,,,5,1.8360412440000573,116,001,2019_Sep_26_1115,MusicAffectPsychophysiology2019,3.0.5,None,
To what extent did the music make you feel ,ALERT,30MonoWAV/30MonoF2.wav,1,2,2,2,,,,,0,6,6,1,0,7,7,8,,,,,,,,,4,1.7685787379999738,116,001,2019_Sep_26_1115,MusicAffectPsychophysiology2019,3.0.5,None,
To what extent did the music make you feel ,FRUSTRATED,30MonoWAV/30MonoF2.wav,1,2,2,2,,,,,0,6,6,1,0,8,8,3,,,,,,,,,1,4.2015907309998966,116,001,2019_Sep_26_1115,MusicAffectPsychophysiology2019,3.0.5,None,
To what extent did the music make you feel ,TENDER,30MonoWAV/30MonoF2.wav,1,2,2,2,,,,,0,6,6,1,0,9,9,10,,,,,,,,,3,2.78359014199998,116,001,2019_Sep_26_1115,MusicAffectPsychophysiology2019,3.0.5,None,
To what extent did the music make you feel ,SCARED,30MonoWAV/30MonoF2.wav,1,2,2,2,,,,,0,6,6,1,0,10,10,11,,,,,,,,,5,3.2528861600000027,116,001,2019_Sep_26_1115,MusicAffectPsychophysiology2019,3.0.5,None,
To what extent did the music make you feel ,GUILTY,30MonoWAV/30MonoF2.wav,1,2,2,2,,,,,0,6,6,1,0,11,11,5,,,,,,,,,1,1.536121277999996,116,001,2019_Sep_26_1115,MusicAffectPsychophysiology2019,3.0.5,None,
,,30MonoWAV/30MonoF2.wav,1,2,2,2,,,,,0,6,6,1,,,,,,,,,,,,,,,116,001,2019_Sep_26_1115,MusicAffectPsychophysiology2019,3.0.5,None,
To what extent did the music make you feel ,ACTIVE,30MonoWAV/30MonoH3.wav,2,2,1,7,,,,,0,7,7,6,0,0,0,9,,,4,3.4672066179999774,4,6.519245605000037,3,5.252188961000002,3,2.5259910510000054,116,001,2019_Sep_26_1115,MusicAffectPsychophysiology2019,3.0.5,None,
To what extent did the music make you feel ,TENDER,30MonoWAV/30MonoH3.wav,2,2,1,7,,,,,0,7,7,6,0,1,1,10,,,,,,,,,2,2.985412661000055,116,001,2019_Sep_26_1115,MusicAffectPsychophysiology2019,3.0.5,None,
To what extent did the music make you feel ,SAD,30MonoWAV/30MonoH3.wav,2,2,1,7,,,,,0,7,7,6,0,2,2,0,,,,,,,,,1,1.1357588970000734,116,001,2019_Sep_26_1115,MusicAffectPsychophysiology2019,3.0.5,None,
To what extent did the music make you feel ,FRUSTRATED,30MonoWAV/30MonoH3.wav,2,2,1,7,,,,,0,7,7,6,0,3,3,3,,,,,,,,,1,0.9677345879999848,116,001,2019_Sep_26_1115,MusicAffectPsychophysiology2019,3.0.5,None,
To what extent did the music make you feel ,ASHAMED,30MonoWAV/30MonoH3.wav,2,2,1,7,,,,,0,7,7,6,0,4,4,4,,,,,,,,,1,0.8177672609999718,116,001,2019_Sep_26_1115,MusicAffectPsychophysiology2019,3.0.5,None,
To what extent did the music make you feel ,HAPPY,30MonoWAV/30MonoH3.wav,2,2,1,7,,,,,0,7,7,6,0,5,5,6,,,,,,,,,4,1.8364895390000129,116,001,2019_Sep_26_1115,MusicAffectPsychophysiology2019,3.0.5,None,
To what extent did the music make you feel ,GUILTY,30MonoWAV/30MonoH3.wav,2,2,1,7,,,,,0,7,7,6,0,6,6,5,,,,,,,,,1,1.5363123390000055,116,001,2019_Sep_26_1115,MusicAffectPsychophysiology2019,3.0.5,None,
To what extent did the music make you feel ,ALERT,30MonoWAV/30MonoH3.wav,2,2,1,7,,,,,0,7,7,6,0,7,7,8,,,,,,,,,3,1.9166198670000085,116,001,2019_Sep_26_1115,MusicAffectPsychophysiology2019,3.0.5,None,
To what extent did the music make you feel ,ANGRY,30MonoWAV/30MonoH3.wav,2,2,1,7,,,,,0,7,7,6,0,8,8,2,,,,,,,,,1,1.9841428030000543,116,001,2019_Sep_26_1115,MusicAffectPsychophysiology2019,3.0.5,None,
To what extent did the music make you feel ,ANXIOUS ,30MonoWAV/30MonoH3.wav,2,2,1,7,,,,,0,7,7,6,0,9,9,1,,,,,,,,,2,2.5440238810000437,116,001,2019_Sep_26_1115,MusicAffectPsychophysiology2019,3.0.5,None,
To what extent did the music make you feel ,SCARED,30MonoWAV/30MonoH3.wav,2,2,1,7,,,,,0,7,7,6,0,10,10,11,,,,,,,,,1,1.340437335000047,116,001,2019_Sep_26_1115,MusicAffectPsychophysiology2019,3.0.5,None,
To what extent did the music make you feel ,EXCITED,30MonoWAV/30MonoH3.wav,2,2,1,7,,,,,0,7,7,6,0,11,11,7,,,,,,,,,4,1.8353984500000706,116,001,2019_Sep_26_1115,MusicAffectPsychophysiology2019,3.0.5,None,
,,30MonoWAV/30MonoH3.wav,2,2,1,7,,,,,0,7,7,6,,,,,,,,,,,,,,,116,001,2019_Sep_26_1115,MusicAffectPsychophysiology2019,3.0.5,None,
To what extent did the music make you feel ,HAPPY,30MonoWAV/30MonoH2.wav,2,2,1,6,,,,,0,8,8,5,0,0,0,6,,,2,4.002686590000053,2,3.6181685510000534,2,2.301751154000044,2,2.818883882000023,116,001,2019_Sep_26_1115,MusicAffectPsychophysiology2019,3.0.5,None,
To what extent did the music make you feel ,FRUSTRATED,30MonoWAV/30MonoH2.wav,2,2,1,6,,,,,0,8,8,5,0,1,1,3,,,,,,,,,3,2.784832342999948,116,001,2019_Sep_26_1115,MusicAffectPsychophysiology2019,3.0.5,None,
To what extent did the music make you feel ,TENDER,30MonoWAV/30MonoH2.wav,2,2,1,6,,,,,0,8,8,5,0,2,2,10,,,,,,,,,1,2.285887572999968,116,001,2019_Sep_26_1115,MusicAffectPsychophysiology2019,3.0.5,None,
To what extent did the music make you feel ,GUILTY,30MonoWAV/30MonoH2.wav,2,2,1,6,,,,,0,8,8,5,0,3,3,5,,,,,,,,,2,7.017726658000015,116,001,2019_Sep_26_1115,MusicAffectPsychophysiology2019,3.0.5,None,
To what extent did the music make you feel ,ALERT,30MonoWAV/30MonoH2.wav,2,2,1,6,,,,,0,8,8,5,0,4,4,8,,,,,,,,,4,3.368688160999909,116,001,2019_Sep_26_1115,MusicAffectPsychophysiology2019,3.0.5,None,
To what extent did the music make you feel ,ASHAMED,30MonoWAV/30MonoH2.wav,2,2,1,6,,,,,0,8,8,5,0,5,5,4,,,,,,,,,1,1.283994688000007,116,001,2019_Sep_26_1115,MusicAffectPsychophysiology2019,3.0.5,None,
To what extent did the music make you feel ,SAD,30MonoWAV/30MonoH2.wav,2,2,1,6,,,,,0,8,8,5,0,6,6,0,,,,,,,,,1,1.7671912569999222,116,001,2019_Sep_26_1115,MusicAffectPsychophysiology2019,3.0.5,None,
To what extent did the music make you feel ,EXCITED,30MonoWAV/30MonoH2.wav,2,2,1,6,,,,,0,8,8,5,0,7,7,7,,,,,,,,,3,3.6169697429999133,116,001,2019_Sep_26_1115,MusicAffectPsychophysiology2019,3.0.5,None,
To what extent did the music make you feel ,ANXIOUS ,30MonoWAV/30MonoH2.wav,2,2,1,6,,,,,0,8,8,5,0,8,8,1,,,,,,,,,2,1.4021106679999775,116,001,2019_Sep_26_1115,MusicAffectPsychophysiology2019,3.0.5,None,
To what extent did the music make you feel ,ANGRY,30MonoWAV/30MonoH2.wav,2,2,1,6,,,,,0,8,8,5,0,9,9,2,,,,,,,,,1,2.435627361999991,116,001,2019_Sep_26_1115,MusicAffectPsychophysiology2019,3.0.5,None,
To what extent did the music make you feel ,ACTIVE,30MonoWAV/30MonoH2.wav,2,2,1,6,,,,,0,8,8,5,0,10,10,9,,,,,,,,,3,1.7353971550001006,116,001,2019_Sep_26_1115,MusicAffectPsychophysiology2019,3.0.5,None,
To what extent did the music make you feel ,SCARED,30MonoWAV/30MonoH2.wav,2,2,1,6,,,,,0,8,8,5,0,11,11,11,,,,,,,,,1,1.1683968160000404,116,001,2019_Sep_26_1115,MusicAffectPsychophysiology2019,3.0.5,None,
,,30MonoWAV/30MonoH2.wav,2,2,1,6,,,,,0,8,8,5,,,,,,,,,,,,,,,116,001,2019_Sep_26_1115,MusicAffectPsychophysiology2019,3.0.5,None,
To what extent did the music make you feel ,GUILTY,30MonoWAV/30MonoT3.wav,2,1,4,15,,,,,0,9,9,14,0,0,0,5,,,2,3.4019298990001516,4,4.168593593999958,4,1.9339198650000071,1,2.3719821389997833,116,001,2019_Sep_26_1115,MusicAffectPsychophysiology2019,3.0.5,None,
To what extent did the music make you feel ,SCARED,30MonoWAV/30MonoT3.wav,2,1,4,15,,,,,0,9,9,14,0,1,1,11,,,,,,,,,1,1.150990254999897,116,001,2019_Sep_26_1115,MusicAffectPsychophysiology2019,3.0.5,None,
To what extent did the music make you feel ,ACTIVE,30MonoWAV/30MonoT3.wav,2,1,4,15,,,,,0,9,9,14,0,2,2,9,,,,,,,,,2,1.3346229969999968,116,001,2019_Sep_26_1115,MusicAffectPsychophysiology2019,3.0.5,None,
To what extent did the music make you feel ,SAD,30MonoWAV/30MonoT3.wav,2,1,4,15,,,,,0,9,9,14,0,3,3,0,,,,,,,,,1,0.902305024000043,116,001,2019_Sep_26_1115,MusicAffectPsychophysiology2019,3.0.5,None,
To what extent did the music make you feel ,EXCITED,30MonoWAV/30MonoT3.wav,2,1,4,15,,,,,0,9,9,14,0,4,4,7,,,,,,,,,3,2.1857670960000632,116,001,2019_Sep_26_1115,MusicAffectPsychophysiology2019,3.0.5,None,
To what extent did the music make you feel ,TENDER,30MonoWAV/30MonoT3.wav,2,1,4,15,,,,,0,9,9,14,0,5,5,10,,,,,,,,,4,1.7024384150001879,116,001,2019_Sep_26_1115,MusicAffectPsychophysiology2019,3.0.5,None,
To what extent did the music make you feel ,ASHAMED,30MonoWAV/30MonoT3.wav,2,1,4,15,,,,,0,9,9,14,0,6,6,4,,,,,,,,,1,1.0363826750001408,116,001,2019_Sep_26_1115,MusicAffectPsychophysiology2019,3.0.5,None,
To what extent did the music make you feel ,ALERT,30MonoWAV/30MonoT3.wav,2,1,4,15,,,,,0,9,9,14,0,7,7,8,,,,,,,,,1,1.9501176230000965,116,001,2019_Sep_26_1115,MusicAffectPsychophysiology2019,3.0.5,None,
To what extent did the music make you feel ,ANGRY,30MonoWAV/30MonoT3.wav,2,1,4,15,,,,,0,9,9,14,0,8,8,2,,,,,,,,,1,1.0010011819999818,116,001,2019_Sep_26_1115,MusicAffectPsychophysiology2019,3.0.5,None,
To what extent did the music make you feel ,HAPPY,30MonoWAV/30MonoT3.wav,2,1,4,15,,,,,0,9,9,14,0,9,9,6,,,,,,,,,4,1.4516890269999294,116,001,2019_Sep_26_1115,MusicAffectPsychophysiology2019,3.0.5,None,
To what extent did the music make you feel ,FRUSTRATED,30MonoWAV/30MonoT3.wav,2,1,4,15,,,,,0,9,9,14,0,10,10,3,,,,,,,,,1,1.1013687290001144,116,001,2019_Sep_26_1115,MusicAffectPsychophysiology2019,3.0.5,None,
To what extent did the music make you feel ,ANXIOUS ,30MonoWAV/30MonoT3.wav,2,1,4,15,,,,,0,9,9,14,0,11,11,1,,,,,,,,,1,0.9866275370000039,116,001,2019_Sep_26_1115,MusicAffectPsychophysiology2019,3.0.5,None,
,,30MonoWAV/30MonoT3.wav,2,1,4,15,,,,,0,9,9,14,,,,,,,,,,,,,,,116,001,2019_Sep_26_1115,MusicAffectPsychophysiology2019,3.0.5,None,
To what extent did the music make you feel ,GUILTY,30MonoWAV/30MonoH4.wav,2,2,1,8,,,,,0,10,10,7,0,0,0,5,,,4,2.7354272580000725,4,3.1018889219999437,3,2.5680730709998443,1,1.7566021309999087,116,001,2019_Sep_26_1115,MusicAffectPsychophysiology2019,3.0.5,None,
To what extent did the music make you feel ,HAPPY,30MonoWAV/30MonoH4.wav,2,2,1,8,,,,,0,10,10,7,0,1,1,6,,,,,,,,,4,2.049900272000059,116,001,2019_Sep_26_1115,MusicAffectPsychophysiology2019,3.0.5,None,
To what extent did the music make you feel ,ALERT,30MonoWAV/30MonoH4.wav,2,2,1,8,,,,,0,10,10,7,0,2,2,8,,,,,,,,,3,1.6347925139998551,116,001,2019_Sep_26_1115,MusicAffectPsychophysiology2019,3.0.5,None,
To what extent did the music make you feel ,SAD,30MonoWAV/30MonoH4.wav,2,2,1,8,,,,,0,10,10,7,0,3,3,0,,,,,,,,,1,1.0527300700000524,116,001,2019_Sep_26_1115,MusicAffectPsychophysiology2019,3.0.5,None,
To what extent did the music make you feel ,ANXIOUS ,30MonoWAV/30MonoH4.wav,2,2,1,8,,,,,0,10,10,7,0,4,4,1,,,,,,,,,1,1.3362740649999978,116,001,2019_Sep_26_1115,MusicAffectPsychophysiology2019,3.0.5,None,
To what extent did the music make you feel ,ACTIVE,30MonoWAV/30MonoH4.wav,2,2,1,8,,,,,0,10,10,7,0,5,5,9,,,,,,,,,2,2.169404514000007,116,001,2019_Sep_26_1115,MusicAffectPsychophysiology2019,3.0.5,None,
To what extent did the music make you feel ,EXCITED,30MonoWAV/30MonoH4.wav,2,2,1,8,,,,,0,10,10,7,0,6,6,7,,,,,,,,,5,1.7534244959999796,116,001,2019_Sep_26_1115,MusicAffectPsychophysiology2019,3.0.5,None,
To what extent did the music make you feel ,ANGRY,30MonoWAV/30MonoH4.wav,2,2,1,8,,,,,0,10,10,7,0,7,7,2,,,,,,,,,1,2.2681698619999224,116,001,2019_Sep_26_1115,MusicAffectPsychophysiology2019,3.0.5,None,
To what extent did the music make you feel ,FRUSTRATED,30MonoWAV/30MonoH4.wav,2,2,1,8,,,,,0,10,10,7,0,8,8,3,,,,,,,,,1,1.2857908869998482,116,001,2019_Sep_26_1115,MusicAffectPsychophysiology2019,3.0.5,None,
To what extent did the music make you feel ,TENDER,30MonoWAV/30MonoH4.wav,2,2,1,8,,,,,0,10,10,7,0,9,9,10,,,,,,,,,1,1.1515923160000057,116,001,2019_Sep_26_1115,MusicAffectPsychophysiology2019,3.0.5,None,
To what extent did the music make you feel ,SCARED,30MonoWAV/30MonoH4.wav,2,2,1,8,,,,,0,10,10,7,0,10,10,11,,,,,,,,,1,1.087007844000027,116,001,2019_Sep_26_1115,MusicAffectPsychophysiology2019,3.0.5,None,
To what extent did the music make you feel ,ASHAMED,30MonoWAV/30MonoH4.wav,2,2,1,8,,,,,0,10,10,7,0,11,11,4,,,,,,,,,1,1.4357484209999711,116,001,2019_Sep_26_1115,MusicAffectPsychophysiology2019,3.0.5,None,
,,30MonoWAV/30MonoH4.wav,2,2,1,8,,,,,0,10,10,7,,,,,,,,,,,,,,,116,001,2019_Sep_26_1115,MusicAffectPsychophysiology2019,3.0.5,None,
To what extent did the music make you feel ,GUILTY,30MonoWAV/30MonoF1.wav,1,2,2,1,,,,,0,11,11,0,0,0,0,5,,,4,3.6685281120001036,1,3.7517143840000244,2,3.4032068779999918,1,1.3686817479999718,116,001,2019_Sep_26_1115,MusicAffectPsychophysiology2019,3.0.5,None,
To what extent did the music make you feel ,SAD,30MonoWAV/30MonoF1.wav,1,2,2,1,,,,,0,11,11,0,0,1,1,0,,,,,,,,,2,1.4023224430000027,116,001,2019_Sep_26_1115,MusicAffectPsychophysiology2019,3.0.5,None,
To what extent did the music make you feel ,TENDER,30MonoWAV/30MonoF1.wav,1,2,2,1,,,,,0,11,11,0,0,2,2,10,,,,,,,,,1,0.9328889979999531,116,001,2019_Sep_26_1115,MusicAffectPsychophysiology2019,3.0.5,None,
To what extent did the music make you feel ,ALERT,30MonoWAV/30MonoF1.wav,1,2,2,1,,,,,0,11,11,0,0,3,3,8,,,,,,,,,4,1.8681726679999429,116,001,2019_Sep_26_1115,MusicAffectPsychophysiology2019,3.0.5,None,
To what extent did the music make you feel ,FRUSTRATED,30MonoWAV/30MonoF1.wav,1,2,2,1,,,,,0,11,11,0,0,4,4,3,,,,,,,,,3,1.553554112000029,116,001,2019_Sep_26_1115,MusicAffectPsychophysiology2019,3.0.5,None,
To what extent did the music make you feel ,ASHAMED,30MonoWAV/30MonoF1.wav,1,2,2,1,,,,,0,11,11,0,0,5,5,4,,,,,,,,,1,1.2269221849999212,116,001,2019_Sep_26_1115,MusicAffectPsychophysiology2019,3.0.5,None,
To what extent did the music make you feel ,ANGRY,30MonoWAV/30MonoF1.wav,1,2,2,1,,,,,0,11,11,0,0,6,6,2,,,,,,,,,2,2.3446828979999736,116,001,2019_Sep_26_1115,MusicAffectPsychophysiology2019,3.0.5,None,
To what extent did the music make you feel ,ACTIVE,30MonoWAV/30MonoF1.wav,1,2,2,1,,,,,0,11,11,0,0,7,7,9,,,,,,,,,3,2.120132725000076,116,001,2019_Sep_26_1115,MusicAffectPsychophysiology2019,3.0.5,None,
To what extent did the music make you feel ,ANXIOUS ,30MonoWAV/30MonoF1.wav,1,2,2,1,,,,,0,11,11,0,0,8,8,1,,,,,,,,,4,1.403157000999954,116,001,2019_Sep_26_1115,MusicAffectPsychophysiology2019,3.0.5,None,
To what extent did the music make you feel ,HAPPY,30MonoWAV/30MonoF1.wav,1,2,2,1,,,,,0,11,11,0,0,9,9,6,,,,,,,,,1,1.586191195000083,116,001,2019_Sep_26_1115,MusicAffectPsychophysiology2019,3.0.5,None,
To what extent did the music make you feel ,EXCITED,30MonoWAV/30MonoF1.wav,1,2,2,1,,,,,0,11,11,0,0,10,10,7,,,,,,,,,1,1.3188351129999774,116,001,2019_Sep_26_1115,MusicAffectPsychophysiology2019,3.0.5,None,
To what extent did the music make you feel ,SCARED,30MonoWAV/30MonoF1.wav,1,2,2,1,,,,,0,11,11,0,0,11,11,11,,,,,,,,,4,1.3859098899999935,116,001,2019_Sep_26_1115,MusicAffectPsychophysiology2019,3.0.5,None,
,,30MonoWAV/30MonoF1.wav,1,2,2,1,,,,,0,11,11,0,,,,,,,,,,,,,,,116,001,2019_Sep_26_1115,MusicAffectPsychophysiology2019,3.0.5,None,
To what extent did the music make you feel ,ACTIVE,30MonoWAV/30MonoS3.wav,1,1,3,11,,,,,0,12,12,10,0,0,0,9,,,2,3.569522336999853,2,3.5359592360000534,2,2.735846247999916,2,2.135632171999987,116,001,2019_Sep_26_1115,MusicAffectPsychophysiology2019,3.0.5,None,
To what extent did the music make you feel ,ANXIOUS ,30MonoWAV/30MonoS3.wav,1,1,3,11,,,,,0,12,12,10,0,1,1,1,,,,,,,,,3,1.9701168250001047,116,001,2019_Sep_26_1115,MusicAffectPsychophysiology2019,3.0.5,None,
To what extent did the music make you feel ,ASHAMED,30MonoWAV/30MonoS3.wav,1,1,3,11,,,,,0,12,12,10,0,2,2,4,,,,,,,,,2,1.7029276639998443,116,001,2019_Sep_26_1115,MusicAffectPsychophysiology2019,3.0.5,None,
To what extent did the music make you feel ,EXCITED,30MonoWAV/30MonoS3.wav,1,1,3,11,,,,,0,12,12,10,0,3,3,7,,,,,,,,,1,1.6201904949998607,116,001,2019_Sep_26_1115,MusicAffectPsychophysiology2019,3.0.5,None,
To what extent did the music make you feel ,FRUSTRATED,30MonoWAV/30MonoS3.wav,1,1,3,11,,,,,0,12,12,10,0,4,4,3,,,,,,,,,2,1.512380179000047,116,001,2019_Sep_26_1115,MusicAffectPsychophysiology2019,3.0.5,None,
To what extent did the music make you feel ,ALERT,30MonoWAV/30MonoS3.wav,1,1,3,11,,,,,0,12,12,10,0,5,5,8,,,,,,,,,2,4.13593379200006,116,001,2019_Sep_26_1115,MusicAffectPsychophysiology2019,3.0.5,None,
To what extent did the music make you feel ,SCARED,30MonoWAV/30MonoS3.wav,1,1,3,11,,,,,0,12,12,10,0,6,6,11,,,,,,,,,3,1.887088821000134,116,001,2019_Sep_26_1115,MusicAffectPsychophysiology2019,3.0.5,None,
To what extent did the music make you feel ,ANGRY,30MonoWAV/30MonoS3.wav,1,1,3,11,,,,,0,12,12,10,0,7,7,2,,,,,,,,,1,1.6173882099999446,116,001,2019_Sep_26_1115,MusicAffectPsychophysiology2019,3.0.5,None,
To what extent did the music make you feel ,TENDER,30MonoWAV/30MonoS3.wav,1,1,3,11,,,,,0,12,12,10,0,8,8,10,,,,,,,,,1,1.3536160090000067,116,001,2019_Sep_26_1115,MusicAffectPsychophysiology2019,3.0.5,None,
To what extent did the music make you feel ,GUILTY,30MonoWAV/30MonoS3.wav,1,1,3,11,,,,,0,12,12,10,0,9,9,5,,,,,,,,,3,1.42020774599996,116,001,2019_Sep_26_1115,MusicAffectPsychophysiology2019,3.0.5,None,
To what extent did the music make you feel ,HAPPY,30MonoWAV/30MonoS3.wav,1,1,3,11,,,,,0,12,12,10,0,10,10,6,,,,,,,,,1,1.9510335620000205,116,001,2019_Sep_26_1115,MusicAffectPsychophysiology2019,3.0.5,None,
To what extent did the music make you feel ,SAD,30MonoWAV/30MonoS3.wav,1,1,3,11,,,,,0,12,12,10,0,11,11,0,,,,,,,,,1,1.319171654999991,116,001,2019_Sep_26_1115,MusicAffectPsychophysiology2019,3.0.5,None,
,,30MonoWAV/30MonoS3.wav,1,1,3,11,,,,,0,12,12,10,,,,,,,,,,,,,,,116,001,2019_Sep_26_1115,MusicAffectPsychophysiology2019,3.0.5,None,
To what extent did the music make you feel ,TENDER,30MonoWAV/30MonoS2.wav,1,1,3,10,,,,,0,13,13,9,0,0,0,10,,,1,3.1854590570001164,1,3.5359173179999743,3,1.8846422149999853,3,2.794578718999901,116,001,2019_Sep_26_1115,MusicAffectPsychophysiology2019,3.0.5,None,
To what extent did the music make you feel ,ANXIOUS ,30MonoWAV/30MonoS2.wav,1,1,3,10,,,,,0,13,13,9,0,1,1,1,,,,,,,,,2,1.3533134970000447,116,001,2019_Sep_26_1115,MusicAffectPsychophysiology2019,3.0.5,None,
To what extent did the music make you feel ,SAD,30MonoWAV/30MonoS2.wav,1,1,3,10,,,,,0,13,13,9,0,2,2,0,,,,,,,,,4,1.5859369719998995,116,001,2019_Sep_26_1115,MusicAffectPsychophysiology2019,3.0.5,None,
To what extent did the music make you feel ,ASHAMED,30MonoWAV/30MonoS2.wav,1,1,3,10,,,,,0,13,13,9,0,3,3,4,,,,,,,,,2,2.385827271999915,116,001,2019_Sep_26_1115,MusicAffectPsychophysiology2019,3.0.5,None,
To what extent did the music make you feel ,ALERT,30MonoWAV/30MonoS2.wav,1,1,3,10,,,,,0,13,13,9,0,4,4,8,,,,,,,,,1,1.352007808000053,116,001,2019_Sep_26_1115,MusicAffectPsychophysiology2019,3.0.5,None,
To what extent did the music make you feel ,ANGRY,30MonoWAV/30MonoS2.wav,1,1,3,10,,,,,0,13,13,9,0,5,5,2,,,,,,,,,1,1.1187014499998895,116,001,2019_Sep_26_1115,MusicAffectPsychophysiology2019,3.0.5,None,
To what extent did the music make you feel ,ACTIVE,30MonoWAV/30MonoS2.wav,1,1,3,10,,,,,0,13,13,9,0,6,6,9,,,,,,,,,1,1.7186444199999187,116,001,2019_Sep_26_1115,MusicAffectPsychophysiology2019,3.0.5,None,
To what extent did the music make you feel ,GUILTY,30MonoWAV/30MonoS2.wav,1,1,3,10,,,,,0,13,13,9,0,7,7,5,,,,,,,,,2,1.8858567839999978,116,001,2019_Sep_26_1115,MusicAffectPsychophysiology2019,3.0.5,None,
To what extent did the music make you feel ,FRUSTRATED,30MonoWAV/30MonoS2.wav,1,1,3,10,,,,,0,13,13,9,0,8,8,3,,,,,,,,,2,1.3517364659999203,116,001,2019_Sep_26_1115,MusicAffectPsychophysiology2019,3.0.5,None,
To what extent did the music make you feel ,EXCITED,30MonoWAV/30MonoS2.wav,1,1,3,10,,,,,0,13,13,9,0,9,9,7,,,,,,,,,1,2.502585616000033,116,001,2019_Sep_26_1115,MusicAffectPsychophysiology2019,3.0.5,None,
To what extent did the music make you feel ,SCARED,30MonoWAV/30MonoS2.wav,1,1,3,10,,,,,0,13,13,9,0,10,10,11,,,,,,,,,3,1.5847978260001128,116,001,2019_Sep_26_1115,MusicAffectPsychophysiology2019,3.0.5,None,
To what extent did the music make you feel ,HAPPY,30MonoWAV/30MonoS2.wav,1,1,3,10,,,,,0,13,13,9,0,11,11,6,,,,,,,,,1,1.002078562999941,116,001,2019_Sep_26_1115,MusicAffectPsychophysiology2019,3.0.5,None,
,,30MonoWAV/30MonoS2.wav,1,1,3,10,,,,,0,13,13,9,,,,,,,,,,,,,,,116,001,2019_Sep_26_1115,MusicAffectPsychophysiology2019,3.0.5,None,
To what extent did the music make you feel ,SAD,30MonoWAV/30MonoS4.wav,1,1,3,12,,,,,0,14,14,11,0,0,0,0,,,1,3.420375960000001,2,5.102053865000016,3,2.4157441340000787,2,1.6360386149999613,116,001,2019_Sep_26_1115,MusicAffectPsychophysiology2019,3.0.5,None,
To what extent did the music make you feel ,ACTIVE,30MonoWAV/30MonoS4.wav,1,1,3,12,,,,,0,14,14,11,0,1,1,9,,,,,,,,,1,1.3524419410000519,116,001,2019_Sep_26_1115,MusicAffectPsychophysiology2019,3.0.5,None,
To what extent did the music make you feel ,FRUSTRATED,30MonoWAV/30MonoS4.wav,1,1,3,12,,,,,0,14,14,11,0,2,2,3,,,,,,,,,1,2.3532423640001525,116,001,2019_Sep_26_1115,MusicAffectPsychophysiology2019,3.0.5,None,
To what extent did the music make you feel ,ANGRY,30MonoWAV/30MonoS4.wav,1,1,3,12,,,,,0,14,14,11,0,3,3,2,,,,,,,,,1,2.569334734999984,116,001,2019_Sep_26_1115,MusicAffectPsychophysiology2019,3.0.5,None,
To what extent did the music make you feel ,SCARED,30MonoWAV/30MonoS4.wav,1,1,3,12,,,,,0,14,14,11,0,4,4,11,,,,,,,,,2,1.8204165629999807,116,001,2019_Sep_26_1115,MusicAffectPsychophysiology2019,3.0.5,None,
To what extent did the music make you feel ,TENDER,30MonoWAV/30MonoS4.wav,1,1,3,12,,,,,0,14,14,11,0,5,5,10,,,,,,,,,3,1.5356422859999839,116,001,2019_Sep_26_1115,MusicAffectPsychophysiology2019,3.0.5,None,
To what extent did the music make you feel ,HAPPY,30MonoWAV/30MonoS4.wav,1,1,3,12,,,,,0,14,14,11,0,6,6,6,,,,,,,,,1,3.0697832809999,116,001,2019_Sep_26_1115,MusicAffectPsychophysiology2019,3.0.5,None,
To what extent did the music make you feel ,GUILTY,30MonoWAV/30MonoS4.wav,1,1,3,12,,,,,0,14,14,11,0,7,7,5,,,,,,,,,2,2.8022328189999826,116,001,2019_Sep_26_1115,MusicAffectPsychophysiology2019,3.0.5,None,
To what extent did the music make you feel ,EXCITED,30MonoWAV/30MonoS4.wav,1,1,3,12,,,,,0,14,14,11,0,8,8,7,,,,,,,,,1,3.269287894000172,116,001,2019_Sep_26_1115,MusicAffectPsychophysiology2019,3.0.5,None,
To what extent did the music make you feel ,ANXIOUS ,30MonoWAV/30MonoS4.wav,1,1,3,12,,,,,0,14,14,11,0,9,9,1,,,,,,,,,3,1.3360654350001369,116,001,2019_Sep_26_1115,MusicAffectPsychophysiology2019,3.0.5,None,
To what extent did the music make you feel ,ASHAMED,30MonoWAV/30MonoS4.wav,1,1,3,12,,,,,0,14,14,11,0,10,10,4,,,,,,,,,2,2.4188595750001696,116,001,2019_Sep_26_1115,MusicAffectPsychophysiology2019,3.0.5,None,
To what extent did the music make you feel ,ALERT,30MonoWAV/30MonoS4.wav,1,1,3,12,,,,,0,14,14,11,0,11,11,8,,,,,,,,,1,1.7361496519999946,116,001,2019_Sep_26_1115,MusicAffectPsychophysiology2019,3.0.5,None,
,,30MonoWAV/30MonoS4.wav,1,1,3,12,,,,,0,14,14,11,,,,,,,,,,,,,,,116,001,2019_Sep_26_1115,MusicAffectPsychophysiology2019,3.0.5,None,
To what extent did the music make you feel ,ANGRY,30MonoWAV/30MonoF3.wav,1,2,2,3,,,,,0,15,15,2,0,0,0,2,,,3,3.218428584000094,2,2.002014444999986,4,3.0359975750000103,2,3.521057323999912,116,001,2019_Sep_26_1115,MusicAffectPsychophysiology2019,3.0.5,None,
To what extent did the music make you feel ,ACTIVE,30MonoWAV/30MonoF3.wav,1,2,2,3,,,,,0,15,15,2,0,1,1,9,,,,,,,,,3,1.2692335060000914,116,001,2019_Sep_26_1115,MusicAffectPsychophysiology2019,3.0.5,None,
To what extent did the music make you feel ,FRUSTRATED,30MonoWAV/30MonoF3.wav,1,2,2,3,,,,,0,15,15,2,0,2,2,3,,,,,,,,,2,1.4203588100001525,116,001,2019_Sep_26_1115,MusicAffectPsychophysiology2019,3.0.5,None,
To what extent did the music make you feel ,ASHAMED,30MonoWAV/30MonoF3.wav,1,2,2,3,,,,,0,15,15,2,0,3,3,4,,,,,,,,,1,1.3197775549999733,116,001,2019_Sep_26_1115,MusicAffectPsychophysiology2019,3.0.5,None,
To what extent did the music make you feel ,ALERT,30MonoWAV/30MonoF3.wav,1,2,2,3,,,,,0,15,15,2,0,4,4,8,,,,,,,,,4,2.3683723070000724,116,001,2019_Sep_26_1115,MusicAffectPsychophysiology2019,3.0.5,None,
To what extent did the music make you feel ,SAD,30MonoWAV/30MonoF3.wav,1,2,2,3,,,,,0,15,15,2,0,5,5,0,,,,,,,,,1,1.6169294699998318,116,001,2019_Sep_26_1115,MusicAffectPsychophysiology2019,3.0.5,None,
To what extent did the music make you feel ,EXCITED,30MonoWAV/30MonoF3.wav,1,2,2,3,,,,,0,15,15,2,0,6,6,7,,,,,,,,,2,1.4695694639999601,116,001,2019_Sep_26_1115,MusicAffectPsychophysiology2019,3.0.5,None,
To what extent did the music make you feel ,SCARED,30MonoWAV/30MonoF3.wav,1,2,2,3,,,,,0,15,15,2,0,7,7,11,,,,,,,,,2,2.451930874000027,116,001,2019_Sep_26_1115,MusicAffectPsychophysiology2019,3.0.5,None,
To what extent did the music make you feel ,HAPPY,30MonoWAV/30MonoF3.wav,1,2,2,3,,,,,0,15,15,2,0,8,8,6,,,,,,,,,2,2.8189487970000755,116,001,2019_Sep_26_1115,MusicAffectPsychophysiology2019,3.0.5,None,
To what extent did the music make you feel ,GUILTY,30MonoWAV/30MonoF3.wav,1,2,2,3,,,,,0,15,15,2,0,9,9,5,,,,,,,,,1,1.2847597739998946,116,001,2019_Sep_26_1115,MusicAffectPsychophysiology2019,3.0.5,None,
To what extent did the music make you feel ,ANXIOUS ,30MonoWAV/30MonoF3.wav,1,2,2,3,,,,,0,15,15,2,0,10,10,1,,,,,,,,,2,2.670048213999962,116,001,2019_Sep_26_1115,MusicAffectPsychophysiology2019,3.0.5,None,
To what extent did the music make you feel ,TENDER,30MonoWAV/30MonoF3.wav,1,2,2,3,,,,,0,15,15,2,0,11,11,10,,,,,,,,,1,1.3186135359999298,116,001,2019_Sep_26_1115,MusicAffectPsychophysiology2019,3.0.5,None,
,,30MonoWAV/30MonoF3.wav,1,2,2,3,,,,,0,15,15,2,,,,,,,,,,,,,,,116,001,2019_Sep_26_1115,MusicAffectPsychophysiology2019,3.0.5,None,
To what extent did the music make you feel ,TENDER,30MonoWAV/30MonoH2.wav,2,2,1,6,,,,,1,0,16,5,0,0,0,10,,,4,3.1514370660001987,3,4.4499778049998895,3,2.0017793399999846,1,1.7853531270000076,116,001,2019_Sep_26_1115,MusicAffectPsychophysiology2019,3.0.5,None,
To what extent did the music make you feel ,FRUSTRATED,30MonoWAV/30MonoH2.wav,2,2,1,6,,,,,1,0,16,5,0,1,1,3,,,,,,,,,1,1.6690822660000322,116,001,2019_Sep_26_1115,MusicAffectPsychophysiology2019,3.0.5,None,
To what extent did the music make you feel ,SCARED,30MonoWAV/30MonoH2.wav,2,2,1,6,,,,,1,0,16,5,0,2,2,11,,,,,,,,,1,1.7012839169999552,116,001,2019_Sep_26_1115,MusicAffectPsychophysiology2019,3.0.5,None,
To what extent did the music make you feel ,HAPPY,30MonoWAV/30MonoH2.wav,2,2,1,6,,,,,1,0,16,5,0,3,3,6,,,,,,,,,4,1.418576319000067,116,001,2019_Sep_26_1115,MusicAffectPsychophysiology2019,3.0.5,None,
To what extent did the music make you feel ,GUILTY,30MonoWAV/30MonoH2.wav,2,2,1,6,,,,,1,0,16,5,0,4,4,5,,,,,,,,,1,1.352569770999935,116,001,2019_Sep_26_1115,MusicAffectPsychophysiology2019,3.0.5,None,
To what extent did the music make you feel ,ANXIOUS ,30MonoWAV/30MonoH2.wav,2,2,1,6,,,,,1,0,16,5,0,5,5,1,,,,,,,,,2,1.2694237390001035,116,001,2019_Sep_26_1115,MusicAffectPsychophysiology2019,3.0.5,None,
To what extent did the music make you feel ,ACTIVE,30MonoWAV/30MonoH2.wav,2,2,1,6,,,,,1,0,16,5,0,6,6,9,,,,,,,,,3,1.9028548450000926,116,001,2019_Sep_26_1115,MusicAffectPsychophysiology2019,3.0.5,None,
To what extent did the music make you feel ,ALERT,30MonoWAV/30MonoH2.wav,2,2,1,6,,,,,1,0,16,5,0,7,7,8,,,,,,,,,4,1.1852822379998997,116,001,2019_Sep_26_1115,MusicAffectPsychophysiology2019,3.0.5,None,
To what extent did the music make you feel ,EXCITED,30MonoWAV/30MonoH2.wav,2,2,1,6,,,,,1,0,16,5,0,8,8,7,,,,,,,,,5,2.4525403170000573,116,001,2019_Sep_26_1115,MusicAffectPsychophysiology2019,3.0.5,None,
To what extent did the music make you feel ,ASHAMED,30MonoWAV/30MonoH2.wav,2,2,1,6,,,,,1,0,16,5,0,9,9,4,,,,,,,,,1,2.868120549999958,116,001,2019_Sep_26_1115,MusicAffectPsychophysiology2019,3.0.5,None,
To what extent did the music make you feel ,SAD,30MonoWAV/30MonoH2.wav,2,2,1,6,,,,,1,0,16,5,0,10,10,0,,,,,,,,,1,1.1359197570000106,116,001,2019_Sep_26_1115,MusicAffectPsychophysiology2019,3.0.5,None,
To what extent did the music make you feel ,ANGRY,30MonoWAV/30MonoH2.wav,2,2,1,6,,,,,1,0,16,5,0,11,11,2,,,,,,,,,1,1.1851160180001443,116,001,2019_Sep_26_1115,MusicAffectPsychophysiology2019,3.0.5,None,
,,30MonoWAV/30MonoH2.wav,2,2,1,6,,,,,1,0,16,5,,,,,,,,,,,,,,,116,001,2019_Sep_26_1115,MusicAffectPsychophysiology2019,3.0.5,None,
To what extent did the music make you feel ,ANGRY,30MonoWAV/30MonoH1.wav,2,2,1,5,,,,,1,1,17,4,0,0,0,2,,,3,3.1583084430001236,3,3.0126482229998146,2,2.3019797500001005,1,1.7853293989999202,116,001,2019_Sep_26_1115,MusicAffectPsychophysiology2019,3.0.5,None,
To what extent did the music make you feel ,GUILTY,30MonoWAV/30MonoH1.wav,2,2,1,5,,,,,1,1,17,4,0,1,1,5,,,,,,,,,1,2.167514990999962,116,001,2019_Sep_26_1115,MusicAffectPsychophysiology2019,3.0.5,None,
To what extent did the music make you feel ,TENDER,30MonoWAV/30MonoH1.wav,2,2,1,5,,,,,1,1,17,4,0,2,2,10,,,,,,,,,3,1.884046059999946,116,001,2019_Sep_26_1115,MusicAffectPsychophysiology2019,3.0.5,None,
To what extent did the music make you feel ,SAD,30MonoWAV/30MonoH1.wav,2,2,1,5,,,,,1,1,17,4,0,3,3,0,,,,,,,,,1,2.368612437000138,116,001,2019_Sep_26_1115,MusicAffectPsychophysiology2019,3.0.5,None,
To what extent did the music make you feel ,ANXIOUS ,30MonoWAV/30MonoH1.wav,2,2,1,5,,,,,1,1,17,4,0,4,4,1,,,,,,,,,2,2.451219682000101,116,001,2019_Sep_26_1115,MusicAffectPsychophysiology2019,3.0.5,None,
To what extent did the music make you feel ,ALERT,30MonoWAV/30MonoH1.wav,2,2,1,5,,,,,1,1,17,4,0,5,5,8,,,,,,,,,3,1.468043908000027,116,001,2019_Sep_26_1115,MusicAffectPsychophysiology2019,3.0.5,None,
To what extent did the music make you feel ,ASHAMED,30MonoWAV/30MonoH1.wav,2,2,1,5,,,,,1,1,17,4,0,6,6,4,,,,,,,,,1,1.2527798500000245,116,001,2019_Sep_26_1115,MusicAffectPsychophysiology2019,3.0.5,None,
To what extent did the music make you feel ,HAPPY,30MonoWAV/30MonoH1.wav,2,2,1,5,,,,,1,1,17,4,0,7,7,6,,,,,,,,,2,2.466915515999972,116,001,2019_Sep_26_1115,MusicAffectPsychophysiology2019,3.0.5,None,
To what extent did the music make you feel ,ACTIVE,30MonoWAV/30MonoH1.wav,2,2,1,5,,,,,1,1,17,4,0,8,8,9,,,,,,,,,3,4.084702478000054,116,001,2019_Sep_26_1115,MusicAffectPsychophysiology2019,3.0.5,None,
To what extent did the music make you feel ,FRUSTRATED,30MonoWAV/30MonoH1.wav,2,2,1,5,,,,,1,1,17,4,0,9,9,3,,,,,,,,,1,1.6348829629998818,116,001,2019_Sep_26_1115,MusicAffectPsychophysiology2019,3.0.5,None,
To what extent did the music make you feel ,EXCITED,30MonoWAV/30MonoH1.wav,2,2,1,5,,,,,1,1,17,4,0,10,10,7,,,,,,,,,3,1.4655661669999063,116,001,2019_Sep_26_1115,MusicAffectPsychophysiology2019,3.0.5,None,
To what extent did the music make you feel ,SCARED,30MonoWAV/30MonoH1.wav,2,2,1,5,,,,,1,1,17,4,0,11,11,11,,,,,,,,,1,2.303438614000015,116,001,2019_Sep_26_1115,MusicAffectPsychophysiology2019,3.0.5,None,
,,30MonoWAV/30MonoH1.wav,2,2,1,5,,,,,1,1,17,4,,,,,,,,,,,,,,,116,001,2019_Sep_26_1115,MusicAffectPsychophysiology2019,3.0.5,None,
To what extent did the music make you feel ,ACTIVE,30MonoWAV/30MonoT1.wav,2,1,4,13,,,,,1,2,18,12,0,0,0,9,,,2,3.6516871360001915,2,3.4352967730001183,3,2.619938563000005,2,3.2023474259999603,116,001,2019_Sep_26_1115,MusicAffectPsychophysiology2019,3.0.5,None,
To what extent did the music make you feel ,ANXIOUS ,30MonoWAV/30MonoT1.wav,2,1,4,13,,,,,1,2,18,12,0,1,1,1,,,,,,,,,2,1.5266381589999583,116,001,2019_Sep_26_1115,MusicAffectPsychophysiology2019,3.0.5,None,
To what extent did the music make you feel ,ALERT,30MonoWAV/30MonoT1.wav,2,1,4,13,,,,,1,2,18,12,0,2,2,8,,,,,,,,,2,3.511727737000001,116,001,2019_Sep_26_1115,MusicAffectPsychophysiology2019,3.0.5,None,
To what extent did the music make you feel ,ASHAMED,30MonoWAV/30MonoT1.wav,2,1,4,13,,,,,1,2,18,12,0,3,3,4,,,,,,,,,1,2.469659178000029,116,001,2019_Sep_26_1115,MusicAffectPsychophysiology2019,3.0.5,None,
To what extent did the music make you feel ,HAPPY,30MonoWAV/30MonoT1.wav,2,1,4,13,,,,,1,2,18,12,0,4,4,6,,,,,,,,,1,3.5018251839999266,116,001,2019_Sep_26_1115,MusicAffectPsychophysiology2019,3.0.5,None,
To what extent did the music make you feel ,SCARED,30MonoWAV/30MonoT1.wav,2,1,4,13,,,,,1,2,18,12,0,5,5,11,,,,,,,,,1,1.7504200450000553,116,001,2019_Sep_26_1115,MusicAffectPsychophysiology2019,3.0.5,None,
To what extent did the music make you feel ,ANGRY,30MonoWAV/30MonoT1.wav,2,1,4,13,,,,,1,2,18,12,0,6,6,2,,,,,,,,,1,0.9835540389999551,116,001,2019_Sep_26_1115,MusicAffectPsychophysiology2019,3.0.5,None,
To what extent did the music make you feel ,FRUSTRATED,30MonoWAV/30MonoT1.wav,2,1,4,13,,,,,1,2,18,12,0,7,7,3,,,,,,,,,2,1.4702239339999323,116,001,2019_Sep_26_1115,MusicAffectPsychophysiology2019,3.0.5,None,
To what extent did the music make you feel ,SAD,30MonoWAV/30MonoT1.wav,2,1,4,13,,,,,1,2,18,12,0,8,8,0,,,,,,,,,3,6.319200258000137,116,001,2019_Sep_26_1115,MusicAffectPsychophysiology2019,3.0.5,None,
To what extent did the music make you feel ,TENDER,30MonoWAV/30MonoT1.wav,2,1,4,13,,,,,1,2,18,12,0,9,9,10,,,,,,,,,3,1.5831082210002023,116,001,2019_Sep_26_1115,MusicAffectPsychophysiology2019,3.0.5,None,
To what extent did the music make you feel ,GUILTY,30MonoWAV/30MonoT1.wav,2,1,4,13,,,,,1,2,18,12,0,10,10,5,,,,,,,,,2,2.751371175000031,116,001,2019_Sep_26_1115,MusicAffectPsychophysiology2019,3.0.5,None,
To what extent did the music make you feel ,EXCITED,30MonoWAV/30MonoT1.wav,2,1,4,13,,,,,1,2,18,12,0,11,11,7,,,,,,,,,1,1.519520711000041,116,001,2019_Sep_26_1115,MusicAffectPsychophysiology2019,3.0.5,None,
,,30MonoWAV/30MonoT1.wav,2,1,4,13,,,,,1,2,18,12,,,,,,,,,,,,,,,116,001,2019_Sep_26_1115,MusicAffectPsychophysiology2019,3.0.5,None,
To what extent did the music make you feel ,GUILTY,30MonoWAV/30MonoS2.wav,1,1,3,10,,,,,1,3,19,9,0,0,0,5,,,1,4.7518388789999335,2,2.449908587000209,3,2.06884313400019,2,2.3375849379999636,116,001,2019_Sep_26_1115,MusicAffectPsychophysiology2019,3.0.5,None,
To what extent did the music make you feel ,ACTIVE,30MonoWAV/30MonoS2.wav,1,1,3,10,,,,,1,3,19,9,0,1,1,9,,,,,,,,,1,1.353149096000152,116,001,2019_Sep_26_1115,MusicAffectPsychophysiology2019,3.0.5,None,
To what extent did the music make you feel ,ANXIOUS ,30MonoWAV/30MonoS2.wav,1,1,3,10,,,,,1,3,19,9,0,2,2,1,,,,,,,,,2,2.119502840999985,116,001,2019_Sep_26_1115,MusicAffectPsychophysiology2019,3.0.5,None,
To what extent did the music make you feel ,TENDER,30MonoWAV/30MonoS2.wav,1,1,3,10,,,,,1,3,19,9,0,3,3,10,,,,,,,,,3,2.4846853509998255,116,001,2019_Sep_26_1115,MusicAffectPsychophysiology2019,3.0.5,None,
To what extent did the music make you feel ,ANGRY,30MonoWAV/30MonoS2.wav,1,1,3,10,,,,,1,3,19,9,0,4,4,2,,,,,,,,,1,1.269475817999819,116,001,2019_Sep_26_1115,MusicAffectPsychophysiology2019,3.0.5,None,
To what extent did the music make you feel ,EXCITED,30MonoWAV/30MonoS2.wav,1,1,3,10,,,,,1,3,19,9,0,5,5,7,,,,,,,,,1,1.3521019540000907,116,001,2019_Sep_26_1115,MusicAffectPsychophysiology2019,3.0.5,None,
To what extent did the music make you feel ,ALERT,30MonoWAV/30MonoS2.wav,1,1,3,10,,,,,1,3,19,9,0,6,6,8,,,,,,,,,2,1.8344101600000613,116,001,2019_Sep_26_1115,MusicAffectPsychophysiology2019,3.0.5,None,
To what extent did the music make you feel ,FRUSTRATED,30MonoWAV/30MonoS2.wav,1,1,3,10,,,,,1,3,19,9,0,7,7,3,,,,,,,,,1,1.6354734420001478,116,001,2019_Sep_26_1115,MusicAffectPsychophysiology2019,3.0.5,None,
To what extent did the music make you feel ,SAD,30MonoWAV/30MonoS2.wav,1,1,3,10,,,,,1,3,19,9,0,8,8,0,,,,,,,,,4,2.84980115999997,116,001,2019_Sep_26_1115,MusicAffectPsychophysiology2019,3.0.5,None,
To what extent did the music make you feel ,ASHAMED,30MonoWAV/30MonoS2.wav,1,1,3,10,,,,,1,3,19,9,0,9,9,4,,,,,,,,,2,4.400466837999829,116,001,2019_Sep_26_1115,MusicAffectPsychophysiology2019,3.0.5,None,
To what extent did the music make you feel ,HAPPY,30MonoWAV/30MonoS2.wav,1,1,3,10,,,,,1,3,19,9,0,10,10,6,,,,,,,,,1,1.2514420259999497,116,001,2019_Sep_26_1115,MusicAffectPsychophysiology2019,3.0.5,None,
To what extent did the music make you feel ,SCARED,30MonoWAV/30MonoS2.wav,1,1,3,10,,,,,1,3,19,9,0,11,11,11,,,,,,,,,2,3.6851449069999944,116,001,2019_Sep_26_1115,MusicAffectPsychophysiology2019,3.0.5,None,
,,30MonoWAV/30MonoS2.wav,1,1,3,10,,,,,1,3,19,9,,,,,,,,,,,,,,,116,001,2019_Sep_26_1115,MusicAffectPsychophysiology2019,3.0.5,None,
To what extent did the music make you feel ,ASHAMED,30MonoWAV/30MonoF1.wav,1,2,2,1,,,,,1,4,20,0,0,0,0,4,,,4,2.901247807000118,1,2.319311819999939,1,3.435724450999942,1,2.9943523689998983,116,001,2019_Sep_26_1115,MusicAffectPsychophysiology2019,3.0.5,None,
To what extent did the music make you feel ,ANGRY,30MonoWAV/30MonoF1.wav,1,2,2,1,,,,,1,4,20,0,0,1,1,2,,,,,,,,,2,2.570255309999993,116,001,2019_Sep_26_1115,MusicAffectPsychophysiology2019,3.0.5,None,
To what extent did the music make you feel ,ALERT,30MonoWAV/30MonoF1.wav,1,2,2,1,,,,,1,4,20,0,0,2,2,8,,,,,,,,,4,1.4491040600000815,116,001,2019_Sep_26_1115,MusicAffectPsychophysiology2019,3.0.5,None,
To what extent did the music make you feel ,HAPPY,30MonoWAV/30MonoF1.wav,1,2,2,1,,,,,1,4,20,0,0,3,3,6,,,,,,,,,1,1.4359896860000845,116,001,2019_Sep_26_1115,MusicAffectPsychophysiology2019,3.0.5,None,
To what extent did the music make you feel ,ACTIVE,30MonoWAV/30MonoF1.wav,1,2,2,1,,,,,1,4,20,0,0,4,4,9,,,,,,,,,3,1.686030141999936,116,001,2019_Sep_26_1115,MusicAffectPsychophysiology2019,3.0.5,None,
To what extent did the music make you feel ,SCARED,30MonoWAV/30MonoF1.wav,1,2,2,1,,,,,1,4,20,0,0,5,5,11,,,,,,,,,5,1.5184422319998703,116,001,2019_Sep_26_1115,MusicAffectPsychophysiology2019,3.0.5,None,
To what extent did the music make you feel ,FRUSTRATED,30MonoWAV/30MonoF1.wav,1,2,2,1,,,,,1,4,20,0,0,6,6,3,,,,,,,,,2,1.482898569000099,116,001,2019_Sep_26_1115,MusicAffectPsychophysiology2019,3.0.5,None,
To what extent did the music make you feel ,EXCITED,30MonoWAV/30MonoF1.wav,1,2,2,1,,,,,1,4,20,0,0,7,7,7,,,,,,,,,1,1.536382789000072,116,001,2019_Sep_26_1115,MusicAffectPsychophysiology2019,3.0.5,None,
To what extent did the music make you feel ,ANXIOUS ,30MonoWAV/30MonoF1.wav,1,2,2,1,,,,,1,4,20,0,0,8,8,1,,,,,,,,,4,1.60314226100013,116,001,2019_Sep_26_1115,MusicAffectPsychophysiology2019,3.0.5,None,
To what extent did the music make you feel ,TENDER,30MonoWAV/30MonoF1.wav,1,2,2,1,,,,,1,4,20,0,0,9,9,10,,,,,,,,,1,1.6682766349999838,116,001,2019_Sep_26_1115,MusicAffectPsychophysiology2019,3.0.5,None,
To what extent did the music make you feel ,GUILTY,30MonoWAV/30MonoF1.wav,1,2,2,1,,,,,1,4,20,0,0,10,10,5,,,,,,,,,2,3.8188712529999975,116,001,2019_Sep_26_1115,MusicAffectPsychophysiology2019,3.0.5,None,
To what extent did the music make you feel ,SAD,30MonoWAV/30MonoF1.wav,1,2,2,1,,,,,1,4,20,0,0,11,11,0,,,,,,,,,1,3.385588020999876,116,001,2019_Sep_26_1115,MusicAffectPsychophysiology2019,3.0.5,None,
,,30MonoWAV/30MonoF1.wav,1,2,2,1,,,,,1,4,20,0,,,,,,,,,,,,,,,116,001,2019_Sep_26_1115,MusicAffectPsychophysiology2019,3.0.5,None,
To what extent did the music make you feel ,SAD,30MonoWAV/30MonoF4.wav,1,2,2,4,,,,,1,5,21,3,0,0,0,0,,,4,2.7690699239999503,1,3.5862605279999116,2,1.5692909999997937,1,2.7352647210000214,116,001,2019_Sep_26_1115,MusicAffectPsychophysiology2019,3.0.5,None,
To what extent did the music make you feel ,FRUSTRATED,30MonoWAV/30MonoF4.wav,1,2,2,4,,,,,1,5,21,3,0,1,1,3,,,,,,,,,3,1.3846452310001496,116,001,2019_Sep_26_1115,MusicAffectPsychophysiology2019,3.0.5,None,
To what extent did the music make you feel ,ALERT,30MonoWAV/30MonoF4.wav,1,2,2,4,,,,,1,5,21,3,0,2,2,8,,,,,,,,,4,2.302582118999908,116,001,2019_Sep_26_1115,MusicAffectPsychophysiology2019,3.0.5,None,
To what extent did the music make you feel ,ANXIOUS ,30MonoWAV/30MonoF4.wav,1,2,2,4,,,,,1,5,21,3,0,3,3,1,,,,,,,,,4,1.436069648000057,116,001,2019_Sep_26_1115,MusicAffectPsychophysiology2019,3.0.5,None,
To what extent did the music make you feel ,ACTIVE,30MonoWAV/30MonoF4.wav,1,2,2,4,,,,,1,5,21,3,0,4,4,9,,,,,,,,,3,1.2355024189998858,116,001,2019_Sep_26_1115,MusicAffectPsychophysiology2019,3.0.5,None,
To what extent did the music make you feel ,ANGRY,30MonoWAV/30MonoF4.wav,1,2,2,4,,,,,1,5,21,3,0,5,5,2,,,,,,,,,2,1.3693706550000115,116,001,2019_Sep_26_1115,MusicAffectPsychophysiology2019,3.0.5,None,
To what extent did the music make you feel ,ASHAMED,30MonoWAV/30MonoF4.wav,1,2,2,4,,,,,1,5,21,3,0,6,6,4,,,,,,,,,1,1.785490014999823,116,001,2019_Sep_26_1115,MusicAffectPsychophysiology2019,3.0.5,None,
To what extent did the music make you feel ,HAPPY,30MonoWAV/30MonoF4.wav,1,2,2,4,,,,,1,5,21,3,0,7,7,6,,,,,,,,,1,1.550689481000063,116,001,2019_Sep_26_1115,MusicAffectPsychophysiology2019,3.0.5,None,
To what extent did the music make you feel ,TENDER,30MonoWAV/30MonoF4.wav,1,2,2,4,,,,,1,5,21,3,0,8,8,10,,,,,,,,,1,1.00025229400012,116,001,2019_Sep_26_1115,MusicAffectPsychophysiology2019,3.0.5,None,
To what extent did the music make you feel ,SCARED,30MonoWAV/30MonoF4.wav,1,2,2,4,,,,,1,5,21,3,0,9,9,11,,,,,,,,,4,2.318998429000203,116,001,2019_Sep_26_1115,MusicAffectPsychophysiology2019,3.0.5,None,
To what extent did the music make you feel ,EXCITED,30MonoWAV/30MonoF4.wav,1,2,2,4,,,,,1,5,21,3,0,10,10,7,,,,,,,,,2,2.8687764869998773,116,001,2019_Sep_26_1115,MusicAffectPsychophysiology2019,3.0.5,None,
To what extent did the music make you feel ,GUILTY,30MonoWAV/30MonoF4.wav,1,2,2,4,,,,,1,5,21,3,0,11,11,5,,,,,,,,,1,2.0015294720001293,116,001,2019_Sep_26_1115,MusicAffectPsychophysiology2019,3.0.5,None,
,,30MonoWAV/30MonoF4.wav,1,2,2,4,,,,,1,5,21,3,,,,,,,,,,,,,,,116,001,2019_Sep_26_1115,MusicAffectPsychophysiology2019,3.0.5,None,
To what extent did the music make you feel ,SAD,30MonoWAV/30MonoS1.wav,1,1,3,9,,,,,1,6,22,8,0,0,0,0,,,2,3.0695679819996258,2,3.0368772470001204,2,1.7854513510001198,4,1.3176656999999068,116,001,2019_Sep_26_1115,MusicAffectPsychophysiology2019,3.0.5,None,
To what extent did the music make you feel ,ANGRY,30MonoWAV/30MonoS1.wav,1,1,3,9,,,,,1,6,22,8,0,1,1,2,,,,,,,,,1,3.218033437000031,116,001,2019_Sep_26_1115,MusicAffectPsychophysiology2019,3.0.5,None,
To what extent did the music make you feel ,EXCITED,30MonoWAV/30MonoS1.wav,1,1,3,9,,,,,1,6,22,8,0,2,2,7,,,,,,,,,1,1.6523865459998888,116,001,2019_Sep_26_1115,MusicAffectPsychophysiology2019,3.0.5,None,
To what extent did the music make you feel ,ACTIVE,30MonoWAV/30MonoS1.wav,1,1,3,9,,,,,1,6,22,8,0,3,3,9,,,,,,,,,2,2.1032928950003225,116,001,2019_Sep_26_1115,MusicAffectPsychophysiology2019,3.0.5,None,
To what extent did the music make you feel ,FRUSTRATED,30MonoWAV/30MonoS1.wav,1,1,3,9,,,,,1,6,22,8,0,4,4,3,,,,,,,,,2,1.335601102000055,116,001,2019_Sep_26_1115,MusicAffectPsychophysiology2019,3.0.5,None,
To what extent did the music make you feel ,ASHAMED,30MonoWAV/30MonoS1.wav,1,1,3,9,,,,,1,6,22,8,0,5,5,4,,,,,,,,,2,2.9527744120000534,116,001,2019_Sep_26_1115,MusicAffectPsychophysiology2019,3.0.5,None,
To what extent did the music make you feel ,SCARED,30MonoWAV/30MonoS1.wav,1,1,3,9,,,,,1,6,22,8,0,6,6,11,,,,,,,,,2,2.6183414120000634,116,001,2019_Sep_26_1115,MusicAffectPsychophysiology2019,3.0.5,None,
To what extent did the music make you feel ,ALERT,30MonoWAV/30MonoS1.wav,1,1,3,9,,,,,1,6,22,8,0,7,7,8,,,,,,,,,1,3.4669700210001793,116,001,2019_Sep_26_1115,MusicAffectPsychophysiology2019,3.0.5,None,
To what extent did the music make you feel ,HAPPY,30MonoWAV/30MonoS1.wav,1,1,3,9,,,,,1,6,22,8,0,8,8,6,,,,,,,,,1,1.2679598600002464,116,001,2019_Sep_26_1115,MusicAffectPsychophysiology2019,3.0.5,None,
To what extent did the music make you feel ,GUILTY,30MonoWAV/30MonoS1.wav,1,1,3,9,,,,,1,6,22,8,0,9,9,5,,,,,,,,,2,3.051903847000176,116,001,2019_Sep_26_1115,MusicAffectPsychophysiology2019,3.0.5,None,
To what extent did the music make you feel ,ANXIOUS ,30MonoWAV/30MonoS1.wav,1,1,3,9,,,,,1,6,22,8,0,10,10,1,,,,,,,,,3,1.1353352140004063,116,001,2019_Sep_26_1115,MusicAffectPsychophysiology2019,3.0.5,None,
To what extent did the music make you feel ,TENDER,30MonoWAV/30MonoS1.wav,1,1,3,9,,,,,1,6,22,8,0,11,11,10,,,,,,,,,3,1.5026958260000356,116,001,2019_Sep_26_1115,MusicAffectPsychophysiology2019,3.0.5,None,
,,30MonoWAV/30MonoS1.wav,1,1,3,9,,,,,1,6,22,8,,,,,,,,,,,,,,,116,001,2019_Sep_26_1115,MusicAffectPsychophysiology2019,3.0.5,None,
To what extent did the music make you feel ,FRUSTRATED,30MonoWAV/30MonoT2.wav,2,1,4,14,,,,,1,7,23,13,0,0,0,3,,,3,3.2515379409996967,3,1.4854806650000683,3,2.2018485529997633,2,2.215387094000107,116,001,2019_Sep_26_1115,MusicAffectPsychophysiology2019,3.0.5,None,
To what extent did the music make you feel ,ACTIVE,30MonoWAV/30MonoT2.wav,2,1,4,14,,,,,1,7,23,13,0,1,1,9,,,,,,,,,1,3.0520365560000755,116,001,2019_Sep_26_1115,MusicAffectPsychophysiology2019,3.0.5,None,
To what extent did the music make you feel ,ALERT,30MonoWAV/30MonoT2.wav,2,1,4,14,,,,,1,7,23,13,0,2,2,8,,,,,,,,,2,1.7846904170000926,116,001,2019_Sep_26_1115,MusicAffectPsychophysiology2019,3.0.5,None,
To what extent did the music make you feel ,TENDER,30MonoWAV/30MonoT2.wav,2,1,4,14,,,,,1,7,23,13,0,3,3,10,,,,,,,,,3,1.2021920779998254,116,001,2019_Sep_26_1115,MusicAffectPsychophysiology2019,3.0.5,None,
To what extent did the music make you feel ,ANXIOUS ,30MonoWAV/30MonoT2.wav,2,1,4,14,,,,,1,7,23,13,0,4,4,1,,,,,,,,,2,2.536295556999903,116,001,2019_Sep_26_1115,MusicAffectPsychophysiology2019,3.0.5,None,
To what extent did the music make you feel ,EXCITED,30MonoWAV/30MonoT2.wav,2,1,4,14,,,,,1,7,23,13,0,5,5,7,,,,,,,,,2,1.5854059840003174,116,001,2019_Sep_26_1115,MusicAffectPsychophysiology2019,3.0.5,None,
To what extent did the music make you feel ,SCARED,30MonoWAV/30MonoT2.wav,2,1,4,14,,,,,1,7,23,13,0,6,6,11,,,,,,,,,1,2.386208778999844,116,001,2019_Sep_26_1115,MusicAffectPsychophysiology2019,3.0.5,None,
To what extent did the music make you feel ,SAD,30MonoWAV/30MonoT2.wav,2,1,4,14,,,,,1,7,23,13,0,7,7,0,,,,,,,,,1,2.151661598999908,116,001,2019_Sep_26_1115,MusicAffectPsychophysiology2019,3.0.5,None,
To what extent did the music make you feel ,GUILTY,30MonoWAV/30MonoT2.wav,2,1,4,14,,,,,1,7,23,13,0,8,8,5,,,,,,,,,1,1.2345484729999043,116,001,2019_Sep_26_1115,MusicAffectPsychophysiology2019,3.0.5,None,
To what extent did the music make you feel ,HAPPY,30MonoWAV/30MonoT2.wav,2,1,4,14,,,,,1,7,23,13,0,9,9,6,,,,,,,,,2,1.7521134169996913,116,001,2019_Sep_26_1115,MusicAffectPsychophysiology2019,3.0.5,None,
To what extent did the music make you feel ,ASHAMED,30MonoWAV/30MonoT2.wav,2,1,4,14,,,,,1,7,23,13,0,10,10,4,,,,,,,,,1,1.6524869199997738,116,001,2019_Sep_26_1115,MusicAffectPsychophysiology2019,3.0.5,None,
To what extent did the music make you feel ,ANGRY,30MonoWAV/30MonoT2.wav,2,1,4,14,,,,,1,7,23,13,0,11,11,2,,,,,,,,,1,5.184871291000036,116,001,2019_Sep_26_1115,MusicAffectPsychophysiology2019,3.0.5,None,
,,30MonoWAV/30MonoT2.wav,2,1,4,14,,,,,1,7,23,13,,,,,,,,,,,,,,,116,001,2019_Sep_26_1115,MusicAffectPsychophysiology2019,3.0.5,None,
To what extent did the music make you feel ,ALERT,30MonoWAV/30MonoH4.wav,2,2,1,8,,,,,1,8,24,7,0,0,0,8,,,4,2.7020843510003942,4,2.8656498569998803,4,2.0194532519999484,3,2.457326992999697,116,001,2019_Sep_26_1115,MusicAffectPsychophysiology2019,3.0.5,None,
To what extent did the music make you feel ,TENDER,30MonoWAV/30MonoH4.wav,2,2,1,8,,,,,1,8,24,7,0,1,1,10,,,,,,,,,2,2.7863592149997203,116,001,2019_Sep_26_1115,MusicAffectPsychophysiology2019,3.0.5,None,
To what extent did the music make you feel ,ASHAMED,30MonoWAV/30MonoH4.wav,2,2,1,8,,,,,1,8,24,7,0,2,2,4,,,,,,,,,1,1.2186146160001954,116,001,2019_Sep_26_1115,MusicAffectPsychophysiology2019,3.0.5,None,
To what extent did the music make you feel ,HAPPY,30MonoWAV/30MonoH4.wav,2,2,1,8,,,,,1,8,24,7,0,3,3,6,,,,,,,,,5,1.785385390999636,116,001,2019_Sep_26_1115,MusicAffectPsychophysiology2019,3.0.5,None,
To what extent did the music make you feel ,GUILTY,30MonoWAV/30MonoH4.wav,2,2,1,8,,,,,1,8,24,7,0,4,4,5,,,,,,,,,1,2.1356775949998337,116,001,2019_Sep_26_1115,MusicAffectPsychophysiology2019,3.0.5,None,
To what extent did the music make you feel ,SCARED,30MonoWAV/30MonoH4.wav,2,2,1,8,,,,,1,8,24,7,0,5,5,11,,,,,,,,,1,1.5355225329999485,116,001,2019_Sep_26_1115,MusicAffectPsychophysiology2019,3.0.5,None,
To what extent did the music make you feel ,ANXIOUS ,30MonoWAV/30MonoH4.wav,2,2,1,8,,,,,1,8,24,7,0,6,6,1,,,,,,,,,1,2.6354065209998225,116,001,2019_Sep_26_1115,MusicAffectPsychophysiology2019,3.0.5,None,
To what extent did the music make you feel ,SAD,30MonoWAV/30MonoH4.wav,2,2,1,8,,,,,1,8,24,7,0,7,7,0,,,,,,,,,1,1.3692168910001783,116,001,2019_Sep_26_1115,MusicAffectPsychophysiology2019,3.0.5,None,
To what extent did the music make you feel ,ACTIVE,30MonoWAV/30MonoH4.wav,2,2,1,8,,,,,1,8,24,7,0,8,8,9,,,,,,,,,3,2.0353226570000515,116,001,2019_Sep_26_1115,MusicAffectPsychophysiology2019,3.0.5,None,
To what extent did the music make you feel ,FRUSTRATED,30MonoWAV/30MonoH4.wav,2,2,1,8,,,,,1,8,24,7,0,9,9,3,,,,,,,,,1,2.053539133999948,116,001,2019_Sep_26_1115,MusicAffectPsychophysiology2019,3.0.5,None,
To what extent did the music make you feel ,ANGRY,30MonoWAV/30MonoH4.wav,2,2,1,8,,,,,1,8,24,7,0,10,10,2,,,,,,,,,1,1.3015316050000365,116,001,2019_Sep_26_1115,MusicAffectPsychophysiology2019,3.0.5,None,
To what extent did the music make you feel ,EXCITED,30MonoWAV/30MonoH4.wav,2,2,1,8,,,,,1,8,24,7,0,11,11,7,,,,,,,,,5,1.4354426550003154,116,001,2019_Sep_26_1115,MusicAffectPsychophysiology2019,3.0.5,None,
,,30MonoWAV/30MonoH4.wav,2,2,1,8,,,,,1,8,24,7,,,,,,,,,,,,,,,116,001,2019_Sep_26_1115,MusicAffectPsychophysiology2019,3.0.5,None,
To what extent did the music make you feel ,ALERT,30MonoWAV/30MonoS4.wav,1,1,3,12,,,,,1,9,25,11,0,0,0,8,,,1,4.1502307499999915,1,2.101895963000061,2,2.48485087500012,2,2.054302356000335,116,001,2019_Sep_26_1115,MusicAffectPsychophysiology2019,3.0.5,None,
To what extent did the music make you feel ,HAPPY,30MonoWAV/30MonoS4.wav,1,1,3,12,,,,,1,9,25,11,0,1,1,6,,,,,,,,,1,2.1029238900000564,116,001,2019_Sep_26_1115,MusicAffectPsychophysiology2019,3.0.5,None,
To what extent did the music make you feel ,SCARED,30MonoWAV/30MonoS4.wav,1,1,3,12,,,,,1,9,25,11,0,2,2,11,,,,,,,,,2,1.3168931569998676,116,001,2019_Sep_26_1115,MusicAffectPsychophysiology2019,3.0.5,None,
To what extent did the music make you feel ,ASHAMED,30MonoWAV/30MonoS4.wav,1,1,3,12,,,,,1,9,25,11,0,3,3,4,,,,,,,,,3,2.3694732529997964,116,001,2019_Sep_26_1115,MusicAffectPsychophysiology2019,3.0.5,None,
To what extent did the music make you feel ,FRUSTRATED,30MonoWAV/30MonoS4.wav,1,1,3,12,,,,,1,9,25,11,0,4,4,3,,,,,,,,,2,1.3861211220000769,116,001,2019_Sep_26_1115,MusicAffectPsychophysiology2019,3.0.5,None,
To what extent did the music make you feel ,EXCITED,30MonoWAV/30MonoS4.wav,1,1,3,12,,,,,1,9,25,11,0,5,5,7,,,,,,,,,1,1.3359696789998452,116,001,2019_Sep_26_1115,MusicAffectPsychophysiology2019,3.0.5,None,
To what extent did the music make you feel ,ANXIOUS ,30MonoWAV/30MonoS4.wav,1,1,3,12,,,,,1,9,25,11,0,6,6,1,,,,,,,,,2,2.569703240999843,116,001,2019_Sep_26_1115,MusicAffectPsychophysiology2019,3.0.5,None,
To what extent did the music make you feel ,GUILTY,30MonoWAV/30MonoS4.wav,1,1,3,12,,,,,1,9,25,11,0,7,7,5,,,,,,,,,3,1.6352749860002405,116,001,2019_Sep_26_1115,MusicAffectPsychophysiology2019,3.0.5,None,
To what extent did the music make you feel ,ACTIVE,30MonoWAV/30MonoS4.wav,1,1,3,12,,,,,1,9,25,11,0,8,8,9,,,,,,,,,1,2.2009962480001377,116,001,2019_Sep_26_1115,MusicAffectPsychophysiology2019,3.0.5,None,
To what extent did the music make you feel ,ANGRY,30MonoWAV/30MonoS4.wav,1,1,3,12,,,,,1,9,25,11,0,9,9,2,,,,,,,,,1,2.418881658000373,116,001,2019_Sep_26_1115,MusicAffectPsychophysiology2019,3.0.5,None,
To what extent did the music make you feel ,SAD,30MonoWAV/30MonoS4.wav,1,1,3,12,,,,,1,9,25,11,0,10,10,0,,,,,,,,,4,1.7852673920001507,116,001,2019_Sep_26_1115,MusicAffectPsychophysiology2019,3.0.5,None,
To what extent did the music make you feel ,TENDER,30MonoWAV/30MonoS4.wav,1,1,3,12,,,,,1,9,25,11,0,11,11,10,,,,,,,,,3,1.6693555460001335,116,001,2019_Sep_26_1115,MusicAffectPsychophysiology2019,3.0.5,None,
,,30MonoWAV/30MonoS4.wav,1,1,3,12,,,,,1,9,25,11,,,,,,,,,,,,,,,116,001,2019_Sep_26_1115,MusicAffectPsychophysiology2019,3.0.5,None,
To what extent did the music make you feel ,HAPPY,30MonoWAV/30MonoH3.wav,2,2,1,7,,,,,1,10,26,6,0,0,0,6,,,4,2.5374018739998974,4,1.3028164940001261,3,1.9857080060000953,4,2.0503710399998454,116,001,2019_Sep_26_1115,MusicAffectPsychophysiology2019,3.0.5,None,
To what extent did the music make you feel ,ASHAMED,30MonoWAV/30MonoH3.wav,2,2,1,7,,,,,1,10,26,6,0,1,1,4,,,,,,,,,1,1.2587518370000907,116,001,2019_Sep_26_1115,MusicAffectPsychophysiology2019,3.0.5,None,
To what extent did the music make you feel ,SCARED,30MonoWAV/30MonoH3.wav,2,2,1,7,,,,,1,10,26,6,0,2,2,11,,,,,,,,,1,2.0645280349999666,116,001,2019_Sep_26_1115,MusicAffectPsychophysiology2019,3.0.5,None,
To what extent did the music make you feel ,SAD,30MonoWAV/30MonoH3.wav,2,2,1,7,,,,,1,10,26,6,0,3,3,0,,,,,,,,,1,1.3850075800000923,116,001,2019_Sep_26_1115,MusicAffectPsychophysiology2019,3.0.5,None,
To what extent did the music make you feel ,ANXIOUS ,30MonoWAV/30MonoH3.wav,2,2,1,7,,,,,1,10,26,6,0,4,4,1,,,,,,,,,2,0.9525097309997363,116,001,2019_Sep_26_1115,MusicAffectPsychophysiology2019,3.0.5,None,
To what extent did the music make you feel ,FRUSTRATED,30MonoWAV/30MonoH3.wav,2,2,1,7,,,,,1,10,26,6,0,5,5,3,,,,,,,,,1,1.1871491379997678,116,001,2019_Sep_26_1115,MusicAffectPsychophysiology2019,3.0.5,None,
To what extent did the music make you feel ,GUILTY,30MonoWAV/30MonoH3.wav,2,2,1,7,,,,,1,10,26,6,0,6,6,5,,,,,,,,,1,2.4679076040001746,116,001,2019_Sep_26_1115,MusicAffectPsychophysiology2019,3.0.5,None,
To what extent did the music make you feel ,ANGRY,30MonoWAV/30MonoH3.wav,2,2,1,7,,,,,1,10,26,6,0,7,7,2,,,,,,,,,1,1.1186457999997401,116,001,2019_Sep_26_1115,MusicAffectPsychophysiology2019,3.0.5,None,
To what extent did the music make you feel ,ACTIVE,30MonoWAV/30MonoH3.wav,2,2,1,7,,,,,1,10,26,6,0,8,8,9,,,,,,,,,3,2.2376084059997083,116,001,2019_Sep_26_1115,MusicAffectPsychophysiology2019,3.0.5,None,
To what extent did the music make you feel ,TENDER,30MonoWAV/30MonoH3.wav,2,2,1,7,,,,,1,10,26,6,0,9,9,10,,,,,,,,,1,1.4368312260003222,116,001,2019_Sep_26_1115,MusicAffectPsychophysiology2019,3.0.5,None,
To what extent did the music make you feel ,ALERT,30MonoWAV/30MonoH3.wav,2,2,1,7,,,,,1,10,26,6,0,10,10,8,,,,,,,,,3,1.2839336420001928,116,001,2019_Sep_26_1115,MusicAffectPsychophysiology2019,3.0.5,None,
To what extent did the music make you feel ,EXCITED,30MonoWAV/30MonoH3.wav,2,2,1,7,,,,,1,10,26,6,0,11,11,7,,,,,,,,,5,1.453105023000262,116,001,2019_Sep_26_1115,MusicAffectPsychophysiology2019,3.0.5,None,
,,30MonoWAV/30MonoH3.wav,2,2,1,7,,,,,1,10,26,6,,,,,,,,,,,,,,,116,001,2019_Sep_26_1115,MusicAffectPsychophysiology2019,3.0.5,None,
To what extent did the music make you feel ,SAD,30MonoWAV/30MonoT4.wav,2,1,4,16,,,,,1,11,27,15,0,0,0,0,,,3,2.9019680050000716,3,2.5355196189998424,3,1.719874111000081,2,1.5812540609999814,116,001,2019_Sep_26_1115,MusicAffectPsychophysiology2019,3.0.5,None,
To what extent did the music make you feel ,HAPPY,30MonoWAV/30MonoT4.wav,2,1,4,16,,,,,1,11,27,15,0,1,1,6,,,,,,,,,4,1.3519544350001524,116,001,2019_Sep_26_1115,MusicAffectPsychophysiology2019,3.0.5,None,
To what extent did the music make you feel ,ACTIVE,30MonoWAV/30MonoT4.wav,2,1,4,16,,,,,1,11,27,15,0,2,2,9,,,,,,,,,3,2.585645378999743,116,001,2019_Sep_26_1115,MusicAffectPsychophysiology2019,3.0.5,None,
To what extent did the music make you feel ,ASHAMED,30MonoWAV/30MonoT4.wav,2,1,4,16,,,,,1,11,27,15,0,3,3,4,,,,,,,,,1,3.5527240139999776,116,001,2019_Sep_26_1115,MusicAffectPsychophysiology2019,3.0.5,None,
To what extent did the music make you feel ,ANGRY,30MonoWAV/30MonoT4.wav,2,1,4,16,,,,,1,11,27,15,0,4,4,2,,,,,,,,,1,1.1695587819999673,116,001,2019_Sep_26_1115,MusicAffectPsychophysiology2019,3.0.5,None,
To what extent did the music make you feel ,SCARED,30MonoWAV/30MonoT4.wav,2,1,4,16,,,,,1,11,27,15,0,5,5,11,,,,,,,,,1,2.468161352000152,116,001,2019_Sep_26_1115,MusicAffectPsychophysiology2019,3.0.5,None,
To what extent did the music make you feel ,EXCITED,30MonoWAV/30MonoT4.wav,2,1,4,16,,,,,1,11,27,15,0,6,6,7,,,,,,,,,2,1.7173506199997064,116,001,2019_Sep_26_1115,MusicAffectPsychophysiology2019,3.0.5,None,
To what extent did the music make you feel ,ALERT,30MonoWAV/30MonoT4.wav,2,1,4,16,,,,,1,11,27,15,0,7,7,8,,,,,,,,,3,1.8674089309997726,116,001,2019_Sep_26_1115,MusicAffectPsychophysiology2019,3.0.5,None,
To what extent did the music make you feel ,FRUSTRATED,30MonoWAV/30MonoT4.wav,2,1,4,16,,,,,1,11,27,15,0,8,8,3,,,,,,,,,1,1.6682395200000428,116,001,2019_Sep_26_1115,MusicAffectPsychophysiology2019,3.0.5,None,
To what extent did the music make you feel ,TENDER,30MonoWAV/30MonoT4.wav,2,1,4,16,,,,,1,11,27,15,0,9,9,10,,,,,,,,,3,1.3857648500002142,116,001,2019_Sep_26_1115,MusicAffectPsychophysiology2019,3.0.5,None,
To what extent did the music make you feel ,ANXIOUS ,30MonoWAV/30MonoT4.wav,2,1,4,16,,,,,1,11,27,15,0,10,10,1,,,,,,,,,2,1.3021013980001044,116,001,2019_Sep_26_1115,MusicAffectPsychophysiology2019,3.0.5,None,
To what extent did the music make you feel ,GUILTY,30MonoWAV/30MonoT4.wav,2,1,4,16,,,,,1,11,27,15,0,11,11,5,,,,,,,,,1,1.2361794649996227,116,001,2019_Sep_26_1115,MusicAffectPsychophysiology2019,3.0.5,None,
,,30MonoWAV/30MonoT4.wav,2,1,4,16,,,,,1,11,27,15,,,,,,,,,,,,,,,116,001,2019_Sep_26_1115,MusicAffectPsychophysiology2019,3.0.5,None,
To what extent did the music make you feel ,ANGRY,30MonoWAV/30MonoF3.wav,1,2,2,3,,,,,1,12,28,2,0,0,0,2,,,3,2.7183129179998105,2,3.3194329839998318,3,1.802414712999962,2,4.35983882399978,116,001,2019_Sep_26_1115,MusicAffectPsychophysiology2019,3.0.5,None,
To what extent did the music make you feel ,TENDER,30MonoWAV/30MonoF3.wav,1,2,2,3,,,,,1,12,28,2,0,1,1,10,,,,,,,,,1,1.218201288000273,116,001,2019_Sep_26_1115,MusicAffectPsychophysiology2019,3.0.5,None,
To what extent did the music make you feel ,SCARED,30MonoWAV/30MonoF3.wav,1,2,2,3,,,,,1,12,28,2,0,2,2,11,,,,,,,,,2,2.518644702999609,116,001,2019_Sep_26_1115,MusicAffectPsychophysiology2019,3.0.5,None,
To what extent did the music make you feel ,ACTIVE,30MonoWAV/30MonoF3.wav,1,2,2,3,,,,,1,12,28,2,0,3,3,9,,,,,,,,,3,3.086372219000168,116,001,2019_Sep_26_1115,MusicAffectPsychophysiology2019,3.0.5,None,
To what extent did the music make you feel ,EXCITED,30MonoWAV/30MonoF3.wav,1,2,2,3,,,,,1,12,28,2,0,4,4,7,,,,,,,,,2,3.6030189650000466,116,001,2019_Sep_26_1115,MusicAffectPsychophysiology2019,3.0.5,None,
To what extent did the music make you feel ,FRUSTRATED,30MonoWAV/30MonoF3.wav,1,2,2,3,,,,,1,12,28,2,0,5,5,3,,,,,,,,,1,2.5843832999998995,116,001,2019_Sep_26_1115,MusicAffectPsychophysiology2019,3.0.5,None,
To what extent did the music make you feel ,HAPPY,30MonoWAV/30MonoF3.wav,1,2,2,3,,,,,1,12,28,2,0,6,6,6,,,,,,,,,1,1.6186744720002935,116,001,2019_Sep_26_1115,MusicAffectPsychophysiology2019,3.0.5,None,
To what extent did the music make you feel ,ASHAMED,30MonoWAV/30MonoF3.wav,1,2,2,3,,,,,1,12,28,2,0,7,7,4,,,,,,,,,1,1.2027838209996844,116,001,2019_Sep_26_1115,MusicAffectPsychophysiology2019,3.0.5,None,
To what extent did the music make you feel ,SAD,30MonoWAV/30MonoF3.wav,1,2,2,3,,,,,1,12,28,2,0,8,8,0,,,,,,,,,1,1.0490962720000425,116,001,2019_Sep_26_1115,MusicAffectPsychophysiology2019,3.0.5,None,
To what extent did the music make you feel ,GUILTY,30MonoWAV/30MonoF3.wav,1,2,2,3,,,,,1,12,28,2,0,9,9,5,,,,,,,,,1,1.0525639769998634,116,001,2019_Sep_26_1115,MusicAffectPsychophysiology2019,3.0.5,None,
To what extent did the music make you feel ,ANXIOUS ,30MonoWAV/30MonoF3.wav,1,2,2,3,,,,,1,12,28,2,0,10,10,1,,,,,,,,,3,2.003214955999738,116,001,2019_Sep_26_1115,MusicAffectPsychophysiology2019,3.0.5,None,
To what extent did the music make you feel ,ALERT,30MonoWAV/30MonoF3.wav,1,2,2,3,,,,,1,12,28,2,0,11,11,8,,,,,,,,,4,1.3185663740000564,116,001,2019_Sep_26_1115,MusicAffectPsychophysiology2019,3.0.5,None,
,,30MonoWAV/30MonoF3.wav,1,2,2,3,,,,,1,12,28,2,,,,,,,,,,,,,,,116,001,2019_Sep_26_1115,MusicAffectPsychophysiology2019,3.0.5,None,
To what extent did the music make you feel ,ACTIVE,30MonoWAV/30MonoT3.wav,2,1,4,15,,,,,1,13,29,14,0,0,0,9,,,2,2.70217432499976,4,2.0031297299997277,4,2.1342434729999695,1,2.8518607720002365,116,001,2019_Sep_26_1115,MusicAffectPsychophysiology2019,3.0.5,None,
To what extent did the music make you feel ,SAD,30MonoWAV/30MonoT3.wav,2,1,4,15,,,,,1,13,29,14,0,1,1,0,,,,,,,,,1,1.1521154150000257,116,001,2019_Sep_26_1115,MusicAffectPsychophysiology2019,3.0.5,None,
To what extent did the music make you feel ,HAPPY,30MonoWAV/30MonoT3.wav,2,1,4,15,,,,,1,13,29,14,0,2,2,6,,,,,,,,,4,1.4002940509999462,116,001,2019_Sep_26_1115,MusicAffectPsychophysiology2019,3.0.5,None,
To what extent did the music make you feel ,SCARED,30MonoWAV/30MonoT3.wav,2,1,4,15,,,,,1,13,29,14,0,3,3,11,,,,,,,,,1,1.3695514129999538,116,001,2019_Sep_26_1115,MusicAffectPsychophysiology2019,3.0.5,None,
To what extent did the music make you feel ,ANXIOUS ,30MonoWAV/30MonoT3.wav,2,1,4,15,,,,,1,13,29,14,0,4,4,1,,,,,,,,,1,1.6355392310001662,116,001,2019_Sep_26_1115,MusicAffectPsychophysiology2019,3.0.5,None,
To what extent did the music make you feel ,EXCITED,30MonoWAV/30MonoT3.wav,2,1,4,15,,,,,1,13,29,14,0,5,5,7,,,,,,,,,2,2.1024540220000745,116,001,2019_Sep_26_1115,MusicAffectPsychophysiology2019,3.0.5,None,
To what extent did the music make you feel ,ANGRY,30MonoWAV/30MonoT3.wav,2,1,4,15,,,,,1,13,29,14,0,6,6,2,,,,,,,,,1,1.9020466439997108,116,001,2019_Sep_26_1115,MusicAffectPsychophysiology2019,3.0.5,None,
To what extent did the music make you feel ,FRUSTRATED,30MonoWAV/30MonoT3.wav,2,1,4,15,,,,,1,13,29,14,0,7,7,3,,,,,,,,,1,1.0019133599998895,116,001,2019_Sep_26_1115,MusicAffectPsychophysiology2019,3.0.5,None,
To what extent did the music make you feel ,ASHAMED,30MonoWAV/30MonoT3.wav,2,1,4,15,,,,,1,13,29,14,0,8,8,4,,,,,,,,,1,1.2608123179998074,116,001,2019_Sep_26_1115,MusicAffectPsychophysiology2019,3.0.5,None,
To what extent did the music make you feel ,GUILTY,30MonoWAV/30MonoT3.wav,2,1,4,15,,,,,1,13,29,14,0,9,9,5,,,,,,,,,1,0.8514281570001003,116,001,2019_Sep_26_1115,MusicAffectPsychophysiology2019,3.0.5,None,
To what extent did the music make you feel ,TENDER,30MonoWAV/30MonoT3.wav,2,1,4,15,,,,,1,13,29,14,0,10,10,10,,,,,,,,,3,1.2101884769999742,116,001,2019_Sep_26_1115,MusicAffectPsychophysiology2019,3.0.5,None,
To what extent did the music make you feel ,ALERT,30MonoWAV/30MonoT3.wav,2,1,4,15,,,,,1,13,29,14,0,11,11,8,,,,,,,,,2,2.752627717999985,116,001,2019_Sep_26_1115,MusicAffectPsychophysiology2019,3.0.5,None,
,,30MonoWAV/30MonoT3.wav,2,1,4,15,,,,,1,13,29,14,,,,,,,,,,,,,,,116,001,2019_Sep_26_1115,MusicAffectPsychophysiology2019,3.0.5,None,
To what extent did the music make you feel ,ALERT,30MonoWAV/30MonoS3.wav,1,1,3,11,,,,,1,14,30,10,0,0,0,8,,,2,7.452909770999668,2,2.9522621199998866,2,1.8036732739997205,2,2.7517861520000224,116,001,2019_Sep_26_1115,MusicAffectPsychophysiology2019,3.0.5,None,
To what extent did the music make you feel ,ACTIVE,30MonoWAV/30MonoS3.wav,1,1,3,11,,,,,1,14,30,10,0,1,1,9,,,,,,,,,1,3.418909972000165,116,001,2019_Sep_26_1115,MusicAffectPsychophysiology2019,3.0.5,None,
To what extent did the music make you feel ,ANGRY,30MonoWAV/30MonoS3.wav,1,1,3,11,,,,,1,14,30,10,0,2,2,2,,,,,,,,,2,2.035489263999807,116,001,2019_Sep_26_1115,MusicAffectPsychophysiology2019,3.0.5,None,
To what extent did the music make you feel ,ASHAMED,30MonoWAV/30MonoS3.wav,1,1,3,11,,,,,1,14,30,10,0,3,3,4,,,,,,,,,1,1.5529291400002876,116,001,2019_Sep_26_1115,MusicAffectPsychophysiology2019,3.0.5,None,
To what extent did the music make you feel ,HAPPY,30MonoWAV/30MonoS3.wav,1,1,3,11,,,,,1,14,30,10,0,4,4,6,,,,,,,,,1,2.3345641519999845,116,001,2019_Sep_26_1115,MusicAffectPsychophysiology2019,3.0.5,None,
To what extent did the music make you feel ,FRUSTRATED,30MonoWAV/30MonoS3.wav,1,1,3,11,,,,,1,14,30,10,0,5,5,3,,,,,,,,,3,1.6023806299999706,116,001,2019_Sep_26_1115,MusicAffectPsychophysiology2019,3.0.5,None,
To what extent did the music make you feel ,TENDER,30MonoWAV/30MonoS3.wav,1,1,3,11,,,,,1,14,30,10,0,6,6,10,,,,,,,,,2,1.7529005579999648,116,001,2019_Sep_26_1115,MusicAffectPsychophysiology2019,3.0.5,None,
To what extent did the music make you feel ,SCARED,30MonoWAV/30MonoS3.wav,1,1,3,11,,,,,1,14,30,10,0,7,7,11,,,,,,,,,3,2.6190320789996804,116,001,2019_Sep_26_1115,MusicAffectPsychophysiology2019,3.0.5,None,
To what extent did the music make you feel ,SAD,30MonoWAV/30MonoS3.wav,1,1,3,11,,,,,1,14,30,10,0,8,8,0,,,,,,,,,1,2.334453174999908,116,001,2019_Sep_26_1115,MusicAffectPsychophysiology2019,3.0.5,None,
To what extent did the music make you feel ,EXCITED,30MonoWAV/30MonoS3.wav,1,1,3,11,,,,,1,14,30,10,0,9,9,7,,,,,,,,,1,1.1035236980001173,116,001,2019_Sep_26_1115,MusicAffectPsychophysiology2019,3.0.5,None,
To what extent did the music make you feel ,GUILTY,30MonoWAV/30MonoS3.wav,1,1,3,11,,,,,1,14,30,10,0,10,10,5,,,,,,,,,1,2.451945655000145,116,001,2019_Sep_26_1115,MusicAffectPsychophysiology2019,3.0.5,None,
To what extent did the music make you feel ,ANXIOUS ,30MonoWAV/30MonoS3.wav,1,1,3,11,,,,,1,14,30,10,0,11,11,1,,,,,,,,,3,2.5364452199996776,116,001,2019_Sep_26_1115,MusicAffectPsychophysiology2019,3.0.5,None,
,,30MonoWAV/30MonoS3.wav,1,1,3,11,,,,,1,14,30,10,,,,,,,,,,,,,,,116,001,2019_Sep_26_1115,MusicAffectPsychophysiology2019,3.0.5,None,
To what extent did the music make you feel ,FRUSTRATED,30MonoWAV/30MonoF2.wav,1,2,2,2,,,,,1,15,31,1,0,0,0,3,,,4,4.368221658000039,1,1.9346251579995624,1,1.5691233120001016,2,4.11230157700038,116,001,2019_Sep_26_1115,MusicAffectPsychophysiology2019,3.0.5,None,
To what extent did the music make you feel ,ACTIVE,30MonoWAV/30MonoF2.wav,1,2,2,2,,,,,1,15,31,1,0,1,1,9,,,,,,,,,3,2.068588424999689,116,001,2019_Sep_26_1115,MusicAffectPsychophysiology2019,3.0.5,None,
To what extent did the music make you feel ,TENDER,30MonoWAV/30MonoF2.wav,1,2,2,2,,,,,1,15,31,1,0,2,2,10,,,,,,,,,1,1.2359680259996821,116,001,2019_Sep_26_1115,MusicAffectPsychophysiology2019,3.0.5,None,
To what extent did the music make you feel ,ALERT,30MonoWAV/30MonoF2.wav,1,2,2,2,,,,,1,15,31,1,0,3,3,8,,,,,,,,,4,1.3351918039998054,116,001,2019_Sep_26_1115,MusicAffectPsychophysiology2019,3.0.5,None,
To what extent did the music make you feel ,SAD,30MonoWAV/30MonoF2.wav,1,2,2,2,,,,,1,15,31,1,0,4,4,0,,,,,,,,,1,3.70161123600019,116,001,2019_Sep_26_1115,MusicAffectPsychophysiology2019,3.0.5,None,
To what extent did the music make you feel ,GUILTY,30MonoWAV/30MonoF2.wav,1,2,2,2,,,,,1,15,31,1,0,5,5,5,,,,,,,,,1,1.1527034799996727,116,001,2019_Sep_26_1115,MusicAffectPsychophysiology2019,3.0.5,None,
To what extent did the music make you feel ,ANXIOUS ,30MonoWAV/30MonoF2.wav,1,2,2,2,,,,,1,15,31,1,0,6,6,1,,,,,,,,,5,1.8194321099999797,116,001,2019_Sep_26_1115,MusicAffectPsychophysiology2019,3.0.5,None,
To what extent did the music make you feel ,ANGRY,30MonoWAV/30MonoF2.wav,1,2,2,2,,,,,1,15,31,1,0,7,7,2,,,,,,,,,2,2.635814069999924,116,001,2019_Sep_26_1115,MusicAffectPsychophysiology2019,3.0.5,None,
To what extent did the music make you feel ,ASHAMED,30MonoWAV/30MonoF2.wav,1,2,2,2,,,,,1,15,31,1,0,8,8,4,,,,,,,,,1,1.4694769829998222,116,001,2019_Sep_26_1115,MusicAffectPsychophysiology2019,3.0.5,None,
To what extent did the music make you feel ,HAPPY,30MonoWAV/30MonoF2.wav,1,2,2,2,,,,,1,15,31,1,0,9,9,6,,,,,,,,,1,1.3357039830002577,116,001,2019_Sep_26_1115,MusicAffectPsychophysiology2019,3.0.5,None,
To what extent did the music make you feel ,SCARED,30MonoWAV/30MonoF2.wav,1,2,2,2,,,,,1,15,31,1,0,10,10,11,,,,,,,,,5,1.8667732570002045,116,001,2019_Sep_26_1115,MusicAffectPsychophysiology2019,3.0.5,None,
To what extent did the music make you feel ,EXCITED,30MonoWAV/30MonoF2.wav,1,2,2,2,,,,,1,15,31,1,0,11,11,7,,,,,,,,,1,1.420510424999975,116,001,2019_Sep_26_1115,MusicAffectPsychophysiology2019,3.0.5,None,
,,30MonoWAV/30MonoF2.wav,1,2,2,2,,,,,1,15,31,1,,,,,,,,,,,,,,,116,001,2019_Sep_26_1115,MusicAffectPsychophysiology2019,3.0.5,None,
