Instruction,Word,song,valence,arousal,affectcat,songmark,pracwords.thisRepN,pracwords.thisTrialN,pracwords.thisN,pracwords.thisIndex,songtrials.thisRepN,songtrials.thisTrialN,songtrials.thisN,songtrials.thisIndex,words.thisRepN,words.thisTrialN,words.thisN,words.thisIndex,begin.keys,begin.rt,arousalkey.keys,arousalkey.rt,valencekey.keys,valencekey.rt,likekey.keys,likekey.rt,WordResponse.keys,WordResponse.rt,participant,session,date,expName,psychopyVersion,frameRate,
,,,,,,,,,,,,,,,,,,,space,14.518542024000453,,,,,,,,,117,001,2019_Sep_26_1411,MusicAffectPsychophysiology2019,3.0.5,60.2554244311804,
,,,,,,,,,,,,,,,,,,,,,4,14.1513428140006,,,,,,,117,001,2019_Sep_26_1411,MusicAffectPsychophysiology2019,3.0.5,60.2554244311804,
,,,,,,,,,,,,,,,,,,,,,,,5,2.385385507999672,,,,,117,001,2019_Sep_26_1411,MusicAffectPsychophysiology2019,3.0.5,60.2554244311804,
,,,,,,,,,,,,,,,,,,,,,,,,,4,2.4854816140004914,,,117,001,2019_Sep_26_1411,MusicAffectPsychophysiology2019,3.0.5,60.2554244311804,
To what extent did the music make you feel ,FRUSTRATED,,,,,,0,0,0,3,,,,,,,,,,,,,,,,,1,2.879954861000442,117,001,2019_Sep_26_1411,MusicAffectPsychophysiology2019,3.0.5,60.2554244311804,
To what extent did the music make you feel ,ACTIVE,,,,,,0,1,1,9,,,,,,,,,,,,,,,,,3,2.368773288000739,117,001,2019_Sep_26_1411,MusicAffectPsychophysiology2019,3.0.5,60.2554244311804,
To what extent did the music make you feel ,ANXIOUS ,,,,,,0,2,2,1,,,,,,,,,,,,,,,,,1,1.6693800119992375,117,001,2019_Sep_26_1411,MusicAffectPsychophysiology2019,3.0.5,60.2554244311804,
To what extent did the music make you feel ,ANGRY,,,,,,0,3,3,2,,,,,,,,,,,,,,,,,1,1.8848073990002376,117,001,2019_Sep_26_1411,MusicAffectPsychophysiology2019,3.0.5,60.2554244311804,
To what extent did the music make you feel ,ALERT,,,,,,0,4,4,8,,,,,,,,,,,,,,,,,4,2.2002796049991957,117,001,2019_Sep_26_1411,MusicAffectPsychophysiology2019,3.0.5,60.2554244311804,
To what extent did the music make you feel ,GUILTY,,,,,,0,5,5,5,,,,,,,,,,,,,,,,,1,1.3194793479997315,117,001,2019_Sep_26_1411,MusicAffectPsychophysiology2019,3.0.5,60.2554244311804,
To what extent did the music make you feel ,SAD,,,,,,0,6,6,0,,,,,,,,,,,,,,,,,1,1.4017095469998821,117,001,2019_Sep_26_1411,MusicAffectPsychophysiology2019,3.0.5,60.2554244311804,
To what extent did the music make you feel ,TENDER,,,,,,0,7,7,10,,,,,,,,,,,,,,,,,3,2.0522159189995364,117,001,2019_Sep_26_1411,MusicAffectPsychophysiology2019,3.0.5,60.2554244311804,
To what extent did the music make you feel ,SCARED,,,,,,0,8,8,11,,,,,,,,,,,,,,,,,1,1.085253805999855,117,001,2019_Sep_26_1411,MusicAffectPsychophysiology2019,3.0.5,60.2554244311804,
To what extent did the music make you feel ,ASHAMED,,,,,,0,9,9,4,,,,,,,,,,,,,,,,,1,1.152041575000112,117,001,2019_Sep_26_1411,MusicAffectPsychophysiology2019,3.0.5,60.2554244311804,
To what extent did the music make you feel ,HAPPY,,,,,,0,10,10,6,,,,,,,,,,,,,,,,,4,2.069627152999601,117,001,2019_Sep_26_1411,MusicAffectPsychophysiology2019,3.0.5,60.2554244311804,
To what extent did the music make you feel ,EXCITED,,,,,,0,11,11,7,,,,,,,,,,,,,,,,,2,3.9184538930003328,117,001,2019_Sep_26_1411,MusicAffectPsychophysiology2019,3.0.5,60.2554244311804,
To what extent did the music make you feel ,ACTIVE,30MonoWAV/30MonoF1.wav,1,2,2,1,,,,,0,0,0,0,0,0,0,9,,,3,3.98427598499984,2,5.368277141999897,3,3.1020368989993585,3,2.5399964130001536,117,001,2019_Sep_26_1411,MusicAffectPsychophysiology2019,3.0.5,60.2554244311804,
To what extent did the music make you feel ,TENDER,30MonoWAV/30MonoF1.wav,1,2,2,1,,,,,0,0,0,0,0,1,1,10,,,,,,,,,1,3.8824843500005954,117,001,2019_Sep_26_1411,MusicAffectPsychophysiology2019,3.0.5,60.2554244311804,
To what extent did the music make you feel ,ANGRY,30MonoWAV/30MonoF1.wav,1,2,2,1,,,,,0,0,0,0,0,2,2,2,,,,,,,,,2,2.2524359050003113,117,001,2019_Sep_26_1411,MusicAffectPsychophysiology2019,3.0.5,60.2554244311804,
To what extent did the music make you feel ,HAPPY,30MonoWAV/30MonoF1.wav,1,2,2,1,,,,,0,0,0,0,0,3,3,6,,,,,,,,,1,2.736156530999324,117,001,2019_Sep_26_1411,MusicAffectPsychophysiology2019,3.0.5,60.2554244311804,
To what extent did the music make you feel ,EXCITED,30MonoWAV/30MonoF1.wav,1,2,2,1,,,,,0,0,0,0,0,4,4,7,,,,,,,,,3,1.9521630830004142,117,001,2019_Sep_26_1411,MusicAffectPsychophysiology2019,3.0.5,60.2554244311804,
To what extent did the music make you feel ,SCARED,30MonoWAV/30MonoF1.wav,1,2,2,1,,,,,0,0,0,0,0,5,5,11,,,,,,,,,2,2.485835035000491,117,001,2019_Sep_26_1411,MusicAffectPsychophysiology2019,3.0.5,60.2554244311804,
To what extent did the music make you feel ,SAD,30MonoWAV/30MonoF1.wav,1,2,2,1,,,,,0,0,0,0,0,6,6,0,,,,,,,,,1,5.467880309000066,117,001,2019_Sep_26_1411,MusicAffectPsychophysiology2019,3.0.5,60.2554244311804,
To what extent did the music make you feel ,GUILTY,30MonoWAV/30MonoF1.wav,1,2,2,1,,,,,0,0,0,0,0,7,7,5,,,,,,,,,1,1.5000675060000503,117,001,2019_Sep_26_1411,MusicAffectPsychophysiology2019,3.0.5,60.2554244311804,
To what extent did the music make you feel ,FRUSTRATED,30MonoWAV/30MonoF1.wav,1,2,2,1,,,,,0,0,0,0,0,8,8,3,,,,,,,,,1,1.4025933760003682,117,001,2019_Sep_26_1411,MusicAffectPsychophysiology2019,3.0.5,60.2554244311804,
To what extent did the music make you feel ,ANXIOUS ,30MonoWAV/30MonoF1.wav,1,2,2,1,,,,,0,0,0,0,0,9,9,1,,,,,,,,,2,1.7531976190002752,117,001,2019_Sep_26_1411,MusicAffectPsychophysiology2019,3.0.5,60.2554244311804,
To what extent did the music make you feel ,ALERT,30MonoWAV/30MonoF1.wav,1,2,2,1,,,,,0,0,0,0,0,10,10,8,,,,,,,,,4,3.7525166349996653,117,001,2019_Sep_26_1411,MusicAffectPsychophysiology2019,3.0.5,60.2554244311804,
To what extent did the music make you feel ,ASHAMED,30MonoWAV/30MonoF1.wav,1,2,2,1,,,,,0,0,0,0,0,11,11,4,,,,,,,,,1,2.186212313999931,117,001,2019_Sep_26_1411,MusicAffectPsychophysiology2019,3.0.5,60.2554244311804,
,,30MonoWAV/30MonoF1.wav,1,2,2,1,,,,,0,0,0,0,,,,,,,,,,,,,,,117,001,2019_Sep_26_1411,MusicAffectPsychophysiology2019,3.0.5,60.2554244311804,
To what extent did the music make you feel ,TENDER,30MonoWAV/30MonoT1.wav,2,1,4,13,,,,,0,1,1,12,0,0,0,10,,,1,4.635964359999889,5,2.2527013330000045,3,2.816544273000545,4,2.5134724239997013,117,001,2019_Sep_26_1411,MusicAffectPsychophysiology2019,3.0.5,60.2554244311804,
To what extent did the music make you feel ,ACTIVE,30MonoWAV/30MonoT1.wav,2,1,4,13,,,,,0,1,1,12,0,1,1,9,,,,,,,,,1,1.6361680039999555,117,001,2019_Sep_26_1411,MusicAffectPsychophysiology2019,3.0.5,60.2554244311804,
To what extent did the music make you feel ,SCARED,30MonoWAV/30MonoT1.wav,2,1,4,13,,,,,0,1,1,12,0,2,2,11,,,,,,,,,1,0.834752865000155,117,001,2019_Sep_26_1411,MusicAffectPsychophysiology2019,3.0.5,60.2554244311804,
To what extent did the music make you feel ,FRUSTRATED,30MonoWAV/30MonoT1.wav,2,1,4,13,,,,,0,1,1,12,0,3,3,3,,,,,,,,,1,0.8350723459998335,117,001,2019_Sep_26_1411,MusicAffectPsychophysiology2019,3.0.5,60.2554244311804,
To what extent did the music make you feel ,ANXIOUS ,30MonoWAV/30MonoT1.wav,2,1,4,13,,,,,0,1,1,12,0,4,4,1,,,,,,,,,1,0.7859732139995685,117,001,2019_Sep_26_1411,MusicAffectPsychophysiology2019,3.0.5,60.2554244311804,
To what extent did the music make you feel ,EXCITED,30MonoWAV/30MonoT1.wav,2,1,4,13,,,,,0,1,1,12,0,5,5,7,,,,,,,,,1,1.3694702640004834,117,001,2019_Sep_26_1411,MusicAffectPsychophysiology2019,3.0.5,60.2554244311804,
To what extent did the music make you feel ,SAD,30MonoWAV/30MonoT1.wav,2,1,4,13,,,,,0,1,1,12,0,6,6,0,,,,,,,,,1,1.3519162649999998,117,001,2019_Sep_26_1411,MusicAffectPsychophysiology2019,3.0.5,60.2554244311804,
To what extent did the music make you feel ,GUILTY,30MonoWAV/30MonoT1.wav,2,1,4,13,,,,,0,1,1,12,0,7,7,5,,,,,,,,,1,1.8694768889999978,117,001,2019_Sep_26_1411,MusicAffectPsychophysiology2019,3.0.5,60.2554244311804,
To what extent did the music make you feel ,ANGRY,30MonoWAV/30MonoT1.wav,2,1,4,13,,,,,0,1,1,12,0,8,8,2,,,,,,,,,1,0.6855008610000368,117,001,2019_Sep_26_1411,MusicAffectPsychophysiology2019,3.0.5,60.2554244311804,
To what extent did the music make you feel ,ALERT,30MonoWAV/30MonoT1.wav,2,1,4,13,,,,,0,1,1,12,0,9,9,8,,,,,,,,,2,1.418844560999787,117,001,2019_Sep_26_1411,MusicAffectPsychophysiology2019,3.0.5,60.2554244311804,
To what extent did the music make you feel ,HAPPY,30MonoWAV/30MonoT1.wav,2,1,4,13,,,,,0,1,1,12,0,10,10,6,,,,,,,,,3,1.9834579130001657,117,001,2019_Sep_26_1411,MusicAffectPsychophysiology2019,3.0.5,60.2554244311804,
To what extent did the music make you feel ,ASHAMED,30MonoWAV/30MonoT1.wav,2,1,4,13,,,,,0,1,1,12,0,11,11,4,,,,,,,,,1,1.1181883279996327,117,001,2019_Sep_26_1411,MusicAffectPsychophysiology2019,3.0.5,60.2554244311804,
,,30MonoWAV/30MonoT1.wav,2,1,4,13,,,,,0,1,1,12,,,,,,,,,,,,,,,117,001,2019_Sep_26_1411,MusicAffectPsychophysiology2019,3.0.5,60.2554244311804,
To what extent did the music make you feel ,TENDER,30MonoWAV/30MonoH1.wav,2,2,1,5,,,,,0,2,2,4,0,0,0,10,,,3,3.7694718760003525,3,2.969069966000461,3,2.3193939800003136,2,2.5723076860003857,117,001,2019_Sep_26_1411,MusicAffectPsychophysiology2019,3.0.5,60.2554244311804,
To what extent did the music make you feel ,ALERT,30MonoWAV/30MonoH1.wav,2,2,1,5,,,,,0,2,2,4,0,1,1,8,,,,,,,,,3,1.4017824359998485,117,001,2019_Sep_26_1411,MusicAffectPsychophysiology2019,3.0.5,60.2554244311804,
To what extent did the music make you feel ,EXCITED,30MonoWAV/30MonoH1.wav,2,2,1,5,,,,,0,2,2,4,0,2,2,7,,,,,,,,,2,2.118692256000031,117,001,2019_Sep_26_1411,MusicAffectPsychophysiology2019,3.0.5,60.2554244311804,
To what extent did the music make you feel ,ANXIOUS ,30MonoWAV/30MonoH1.wav,2,2,1,5,,,,,0,2,2,4,0,3,3,1,,,,,,,,,1,1.76947523599938,117,001,2019_Sep_26_1411,MusicAffectPsychophysiology2019,3.0.5,60.2554244311804,
To what extent did the music make you feel ,SAD,30MonoWAV/30MonoH1.wav,2,2,1,5,,,,,0,2,2,4,0,4,4,0,,,,,,,,,1,1.0687359049998122,117,001,2019_Sep_26_1411,MusicAffectPsychophysiology2019,3.0.5,60.2554244311804,
To what extent did the music make you feel ,ACTIVE,30MonoWAV/30MonoH1.wav,2,2,1,5,,,,,0,2,2,4,0,5,5,9,,,,,,,,,2,1.535685184000613,117,001,2019_Sep_26_1411,MusicAffectPsychophysiology2019,3.0.5,60.2554244311804,
To what extent did the music make you feel ,GUILTY,30MonoWAV/30MonoH1.wav,2,2,1,5,,,,,0,2,2,4,0,6,6,5,,,,,,,,,1,3.2011201629993593,117,001,2019_Sep_26_1411,MusicAffectPsychophysiology2019,3.0.5,60.2554244311804,
To what extent did the music make you feel ,ANGRY,30MonoWAV/30MonoH1.wav,2,2,1,5,,,,,0,2,2,4,0,7,7,2,,,,,,,,,1,0.5871090609998646,117,001,2019_Sep_26_1411,MusicAffectPsychophysiology2019,3.0.5,60.2554244311804,
To what extent did the music make you feel ,SCARED,30MonoWAV/30MonoH1.wav,2,2,1,5,,,,,0,2,2,4,0,8,8,11,,,,,,,,,1,1.7176921529999163,117,001,2019_Sep_26_1411,MusicAffectPsychophysiology2019,3.0.5,60.2554244311804,
To what extent did the music make you feel ,ASHAMED,30MonoWAV/30MonoH1.wav,2,2,1,5,,,,,0,2,2,4,0,9,9,4,,,,,,,,,1,0.7365790200001356,117,001,2019_Sep_26_1411,MusicAffectPsychophysiology2019,3.0.5,60.2554244311804,
To what extent did the music make you feel ,HAPPY,30MonoWAV/30MonoH1.wav,2,2,1,5,,,,,0,2,2,4,0,10,10,6,,,,,,,,,2,2.6684099570002218,117,001,2019_Sep_26_1411,MusicAffectPsychophysiology2019,3.0.5,60.2554244311804,
To what extent did the music make you feel ,FRUSTRATED,30MonoWAV/30MonoH1.wav,2,2,1,5,,,,,0,2,2,4,0,11,11,3,,,,,,,,,1,0.6343173069999466,117,001,2019_Sep_26_1411,MusicAffectPsychophysiology2019,3.0.5,60.2554244311804,
,,30MonoWAV/30MonoH1.wav,2,2,1,5,,,,,0,2,2,4,,,,,,,,,,,,,,,117,001,2019_Sep_26_1411,MusicAffectPsychophysiology2019,3.0.5,60.2554244311804,
To what extent did the music make you feel ,FRUSTRATED,30MonoWAV/30MonoT2.wav,2,1,4,14,,,,,0,3,3,13,0,0,0,3,,,1,5.6682268519998615,5,2.1200213069996607,4,2.2523372209998342,1,1.8022515509992445,117,001,2019_Sep_26_1411,MusicAffectPsychophysiology2019,3.0.5,60.2554244311804,
To what extent did the music make you feel ,SCARED,30MonoWAV/30MonoT2.wav,2,1,4,14,,,,,0,3,3,13,0,1,1,11,,,,,,,,,1,0.6852188519997071,117,001,2019_Sep_26_1411,MusicAffectPsychophysiology2019,3.0.5,60.2554244311804,
To what extent did the music make you feel ,ANXIOUS ,30MonoWAV/30MonoT2.wav,2,1,4,14,,,,,0,3,3,13,0,2,2,1,,,,,,,,,1,0.7187082890004604,117,001,2019_Sep_26_1411,MusicAffectPsychophysiology2019,3.0.5,60.2554244311804,
To what extent did the music make you feel ,TENDER,30MonoWAV/30MonoT2.wav,2,1,4,14,,,,,0,3,3,13,0,3,3,10,,,,,,,,,4,1.902462607000416,117,001,2019_Sep_26_1411,MusicAffectPsychophysiology2019,3.0.5,60.2554244311804,
To what extent did the music make you feel ,GUILTY,30MonoWAV/30MonoT2.wav,2,1,4,14,,,,,0,3,3,13,0,4,4,5,,,,,,,,,1,0.784558465000373,117,001,2019_Sep_26_1411,MusicAffectPsychophysiology2019,3.0.5,60.2554244311804,
To what extent did the music make you feel ,ALERT,30MonoWAV/30MonoT2.wav,2,1,4,14,,,,,0,3,3,13,0,5,5,8,,,,,,,,,2,1.7519742599997699,117,001,2019_Sep_26_1411,MusicAffectPsychophysiology2019,3.0.5,60.2554244311804,
To what extent did the music make you feel ,HAPPY,30MonoWAV/30MonoT2.wav,2,1,4,14,,,,,0,3,3,13,0,6,6,6,,,,,,,,,3,1.3867767679994358,117,001,2019_Sep_26_1411,MusicAffectPsychophysiology2019,3.0.5,60.2554244311804,
To what extent did the music make you feel ,ANGRY,30MonoWAV/30MonoT2.wav,2,1,4,14,,,,,0,3,3,13,0,7,7,2,,,,,,,,,1,0.8361716249992242,117,001,2019_Sep_26_1411,MusicAffectPsychophysiology2019,3.0.5,60.2554244311804,
To what extent did the music make you feel ,ASHAMED,30MonoWAV/30MonoT2.wav,2,1,4,14,,,,,0,3,3,13,0,8,8,4,,,,,,,,,1,1.0853158859999894,117,001,2019_Sep_26_1411,MusicAffectPsychophysiology2019,3.0.5,60.2554244311804,
To what extent did the music make you feel ,EXCITED,30MonoWAV/30MonoT2.wav,2,1,4,14,,,,,0,3,3,13,0,9,9,7,,,,,,,,,2,2.551324238000234,117,001,2019_Sep_26_1411,MusicAffectPsychophysiology2019,3.0.5,60.2554244311804,
To what extent did the music make you feel ,SAD,30MonoWAV/30MonoT2.wav,2,1,4,14,,,,,0,3,3,13,0,10,10,0,,,,,,,,,1,0.6368653779991291,117,001,2019_Sep_26_1411,MusicAffectPsychophysiology2019,3.0.5,60.2554244311804,
To what extent did the music make you feel ,ACTIVE,30MonoWAV/30MonoT2.wav,2,1,4,14,,,,,0,3,3,13,0,11,11,9,,,,,,,,,2,1.4680790630000047,117,001,2019_Sep_26_1411,MusicAffectPsychophysiology2019,3.0.5,60.2554244311804,
,,30MonoWAV/30MonoT2.wav,2,1,4,14,,,,,0,3,3,13,,,,,,,,,,,,,,,117,001,2019_Sep_26_1411,MusicAffectPsychophysiology2019,3.0.5,60.2554244311804,
To what extent did the music make you feel ,SCARED,30MonoWAV/30MonoF3.wav,1,2,2,3,,,,,0,4,4,2,0,0,0,11,,,3,5.3856901469998775,2,3.2851287999992564,3,2.3521750730005806,2,1.5239314729997204,117,001,2019_Sep_26_1411,MusicAffectPsychophysiology2019,3.0.5,60.2554244311804,
To what extent did the music make you feel ,ACTIVE,30MonoWAV/30MonoF3.wav,1,2,2,3,,,,,0,4,4,2,0,1,1,9,,,,,,,,,2,1.418537407000258,117,001,2019_Sep_26_1411,MusicAffectPsychophysiology2019,3.0.5,60.2554244311804,
To what extent did the music make you feel ,ANGRY,30MonoWAV/30MonoF3.wav,1,2,2,3,,,,,0,4,4,2,0,2,2,2,,,,,,,,,2,2.0692270270001245,117,001,2019_Sep_26_1411,MusicAffectPsychophysiology2019,3.0.5,60.2554244311804,
To what extent did the music make you feel ,TENDER,30MonoWAV/30MonoF3.wav,1,2,2,3,,,,,0,4,4,2,0,3,3,10,,,,,,,,,1,1.119495719999577,117,001,2019_Sep_26_1411,MusicAffectPsychophysiology2019,3.0.5,60.2554244311804,
To what extent did the music make you feel ,HAPPY,30MonoWAV/30MonoF3.wav,1,2,2,3,,,,,0,4,4,2,0,4,4,6,,,,,,,,,2,1.6035486370001308,117,001,2019_Sep_26_1411,MusicAffectPsychophysiology2019,3.0.5,60.2554244311804,
To what extent did the music make you feel ,ASHAMED,30MonoWAV/30MonoF3.wav,1,2,2,3,,,,,0,4,4,2,0,5,5,4,,,,,,,,,1,1.1685787849992266,117,001,2019_Sep_26_1411,MusicAffectPsychophysiology2019,3.0.5,60.2554244311804,
To what extent did the music make you feel ,EXCITED,30MonoWAV/30MonoF3.wav,1,2,2,3,,,,,0,4,4,2,0,6,6,7,,,,,,,,,2,3.4368324239994763,117,001,2019_Sep_26_1411,MusicAffectPsychophysiology2019,3.0.5,60.2554244311804,
To what extent did the music make you feel ,GUILTY,30MonoWAV/30MonoF3.wav,1,2,2,3,,,,,0,4,4,2,0,7,7,5,,,,,,,,,1,1.1189552790001471,117,001,2019_Sep_26_1411,MusicAffectPsychophysiology2019,3.0.5,60.2554244311804,
To what extent did the music make you feel ,FRUSTRATED,30MonoWAV/30MonoF3.wav,1,2,2,3,,,,,0,4,4,2,0,8,8,3,,,,,,,,,1,1.685553176999747,117,001,2019_Sep_26_1411,MusicAffectPsychophysiology2019,3.0.5,60.2554244311804,
To what extent did the music make you feel ,ALERT,30MonoWAV/30MonoF3.wav,1,2,2,3,,,,,0,4,4,2,0,9,9,8,,,,,,,,,3,1.71873393199985,117,001,2019_Sep_26_1411,MusicAffectPsychophysiology2019,3.0.5,60.2554244311804,
To what extent did the music make you feel ,ANXIOUS ,30MonoWAV/30MonoF3.wav,1,2,2,3,,,,,0,4,4,2,0,10,10,1,,,,,,,,,3,1.9691437250003219,117,001,2019_Sep_26_1411,MusicAffectPsychophysiology2019,3.0.5,60.2554244311804,
To what extent did the music make you feel ,SAD,30MonoWAV/30MonoF3.wav,1,2,2,3,,,,,0,4,4,2,0,11,11,0,,,,,,,,,1,0.8027321460003805,117,001,2019_Sep_26_1411,MusicAffectPsychophysiology2019,3.0.5,60.2554244311804,
,,30MonoWAV/30MonoF3.wav,1,2,2,3,,,,,0,4,4,2,,,,,,,,,,,,,,,117,001,2019_Sep_26_1411,MusicAffectPsychophysiology2019,3.0.5,60.2554244311804,
To what extent did the music make you feel ,EXCITED,30MonoWAV/30MonoH4.wav,2,2,1,8,,,,,0,5,5,7,0,0,0,7,,,4,3.069059727000422,4,1.4519671140005812,4,1.6360338999993473,4,2.069519929999842,117,001,2019_Sep_26_1411,MusicAffectPsychophysiology2019,3.0.5,60.2554244311804,
To what extent did the music make you feel ,ANGRY,30MonoWAV/30MonoH4.wav,2,2,1,8,,,,,0,5,5,7,0,1,1,2,,,,,,,,,1,1.1190529220002645,117,001,2019_Sep_26_1411,MusicAffectPsychophysiology2019,3.0.5,60.2554244311804,
To what extent did the music make you feel ,HAPPY,30MonoWAV/30MonoH4.wav,2,2,1,8,,,,,0,5,5,7,0,2,2,6,,,,,,,,,3,1.2023198169999887,117,001,2019_Sep_26_1411,MusicAffectPsychophysiology2019,3.0.5,60.2554244311804,
To what extent did the music make you feel ,TENDER,30MonoWAV/30MonoH4.wav,2,2,1,8,,,,,0,5,5,7,0,3,3,10,,,,,,,,,2,1.3683611999995264,117,001,2019_Sep_26_1411,MusicAffectPsychophysiology2019,3.0.5,60.2554244311804,
To what extent did the music make you feel ,GUILTY,30MonoWAV/30MonoH4.wav,2,2,1,8,,,,,0,5,5,7,0,4,4,5,,,,,,,,,1,0.9688260819993957,117,001,2019_Sep_26_1411,MusicAffectPsychophysiology2019,3.0.5,60.2554244311804,
To what extent did the music make you feel ,ASHAMED,30MonoWAV/30MonoH4.wav,2,2,1,8,,,,,0,5,5,7,0,5,5,4,,,,,,,,,1,0.9684953420000966,117,001,2019_Sep_26_1411,MusicAffectPsychophysiology2019,3.0.5,60.2554244311804,
To what extent did the music make you feel ,FRUSTRATED,30MonoWAV/30MonoH4.wav,2,2,1,8,,,,,0,5,5,7,0,6,6,3,,,,,,,,,1,0.7534979900001417,117,001,2019_Sep_26_1411,MusicAffectPsychophysiology2019,3.0.5,60.2554244311804,
To what extent did the music make you feel ,ALERT,30MonoWAV/30MonoH4.wav,2,2,1,8,,,,,0,5,5,7,0,7,7,8,,,,,,,,,3,1.1359879810006532,117,001,2019_Sep_26_1411,MusicAffectPsychophysiology2019,3.0.5,60.2554244311804,
To what extent did the music make you feel ,SCARED,30MonoWAV/30MonoH4.wav,2,2,1,8,,,,,0,5,5,7,0,8,8,11,,,,,,,,,1,1.0525882590000037,117,001,2019_Sep_26_1411,MusicAffectPsychophysiology2019,3.0.5,60.2554244311804,
To what extent did the music make you feel ,ANXIOUS ,30MonoWAV/30MonoH4.wav,2,2,1,8,,,,,0,5,5,7,0,9,9,1,,,,,,,,,1,1.1530526559999998,117,001,2019_Sep_26_1411,MusicAffectPsychophysiology2019,3.0.5,60.2554244311804,
To what extent did the music make you feel ,ACTIVE,30MonoWAV/30MonoH4.wav,2,2,1,8,,,,,0,5,5,7,0,10,10,9,,,,,,,,,3,1.8194036280001455,117,001,2019_Sep_26_1411,MusicAffectPsychophysiology2019,3.0.5,60.2554244311804,
To what extent did the music make you feel ,SAD,30MonoWAV/30MonoH4.wav,2,2,1,8,,,,,0,5,5,7,0,11,11,0,,,,,,,,,1,0.8024128790002578,117,001,2019_Sep_26_1411,MusicAffectPsychophysiology2019,3.0.5,60.2554244311804,
,,30MonoWAV/30MonoH4.wav,2,2,1,8,,,,,0,5,5,7,,,,,,,,,,,,,,,117,001,2019_Sep_26_1411,MusicAffectPsychophysiology2019,3.0.5,60.2554244311804,
To what extent did the music make you feel ,ASHAMED,30MonoWAV/30MonoS2.wav,1,1,3,10,,,,,0,6,6,9,0,0,0,4,,,1,2.9667754559995956,2,3.3189061780003613,3,1.8196607800000493,2,2.8769330189998072,117,001,2019_Sep_26_1411,MusicAffectPsychophysiology2019,3.0.5,60.2554244311804,
To what extent did the music make you feel ,HAPPY,30MonoWAV/30MonoS2.wav,1,1,3,10,,,,,0,6,6,9,0,1,1,6,,,,,,,,,1,2.4021349260001443,117,001,2019_Sep_26_1411,MusicAffectPsychophysiology2019,3.0.5,60.2554244311804,
To what extent did the music make you feel ,EXCITED,30MonoWAV/30MonoS2.wav,1,1,3,10,,,,,0,6,6,9,0,2,2,7,,,,,,,,,1,1.1018833950001863,117,001,2019_Sep_26_1411,MusicAffectPsychophysiology2019,3.0.5,60.2554244311804,
To what extent did the music make you feel ,SAD,30MonoWAV/30MonoS2.wav,1,1,3,10,,,,,0,6,6,9,0,3,3,0,,,,,,,,,3,4.233240853000098,117,001,2019_Sep_26_1411,MusicAffectPsychophysiology2019,3.0.5,60.2554244311804,
To what extent did the music make you feel ,GUILTY,30MonoWAV/30MonoS2.wav,1,1,3,10,,,,,0,6,6,9,0,4,4,5,,,,,,,,,2,1.0359185259994774,117,001,2019_Sep_26_1411,MusicAffectPsychophysiology2019,3.0.5,60.2554244311804,
To what extent did the music make you feel ,SCARED,30MonoWAV/30MonoS2.wav,1,1,3,10,,,,,0,6,6,9,0,5,5,11,,,,,,,,,1,2.45209930800047,117,001,2019_Sep_26_1411,MusicAffectPsychophysiology2019,3.0.5,60.2554244311804,
To what extent did the music make you feel ,ANGRY,30MonoWAV/30MonoS2.wav,1,1,3,10,,,,,0,6,6,9,0,6,6,2,,,,,,,,,1,1.1524016889998165,117,001,2019_Sep_26_1411,MusicAffectPsychophysiology2019,3.0.5,60.2554244311804,
To what extent did the music make you feel ,ALERT,30MonoWAV/30MonoS2.wav,1,1,3,10,,,,,0,6,6,9,0,7,7,8,,,,,,,,,1,1.2184767680000732,117,001,2019_Sep_26_1411,MusicAffectPsychophysiology2019,3.0.5,60.2554244311804,
To what extent did the music make you feel ,TENDER,30MonoWAV/30MonoS2.wav,1,1,3,10,,,,,0,6,6,9,0,8,8,10,,,,,,,,,1,3.0362914440001987,117,001,2019_Sep_26_1411,MusicAffectPsychophysiology2019,3.0.5,60.2554244311804,
To what extent did the music make you feel ,FRUSTRATED,30MonoWAV/30MonoS2.wav,1,1,3,10,,,,,0,6,6,9,0,9,9,3,,,,,,,,,1,1.1081370540005082,117,001,2019_Sep_26_1411,MusicAffectPsychophysiology2019,3.0.5,60.2554244311804,
To what extent did the music make you feel ,ANXIOUS ,30MonoWAV/30MonoS2.wav,1,1,3,10,,,,,0,6,6,9,0,10,10,1,,,,,,,,,2,1.1853338499995516,117,001,2019_Sep_26_1411,MusicAffectPsychophysiology2019,3.0.5,60.2554244311804,
To what extent did the music make you feel ,ACTIVE,30MonoWAV/30MonoS2.wav,1,1,3,10,,,,,0,6,6,9,0,11,11,9,,,,,,,,,1,1.453032014999735,117,001,2019_Sep_26_1411,MusicAffectPsychophysiology2019,3.0.5,60.2554244311804,
,,30MonoWAV/30MonoS2.wav,1,1,3,10,,,,,0,6,6,9,,,,,,,,,,,,,,,117,001,2019_Sep_26_1411,MusicAffectPsychophysiology2019,3.0.5,60.2554244311804,
To what extent did the music make you feel ,SAD,30MonoWAV/30MonoF2.wav,1,2,2,2,,,,,0,7,7,1,0,0,0,0,,,2,4.069074476000424,1,1.3356773689993133,3,2.0024892120000004,1,2.0019425370001045,117,001,2019_Sep_26_1411,MusicAffectPsychophysiology2019,3.0.5,60.2554244311804,
To what extent did the music make you feel ,HAPPY,30MonoWAV/30MonoF2.wav,1,2,2,2,,,,,0,7,7,1,0,1,1,6,,,,,,,,,1,1.1517428349998227,117,001,2019_Sep_26_1411,MusicAffectPsychophysiology2019,3.0.5,60.2554244311804,
To what extent did the music make you feel ,FRUSTRATED,30MonoWAV/30MonoF2.wav,1,2,2,2,,,,,0,7,7,1,0,2,2,3,,,,,,,,,1,1.3008929580000768,117,001,2019_Sep_26_1411,MusicAffectPsychophysiology2019,3.0.5,60.2554244311804,
To what extent did the music make you feel ,GUILTY,30MonoWAV/30MonoF2.wav,1,2,2,2,,,,,0,7,7,1,0,3,3,5,,,,,,,,,1,0.9186658050002734,117,001,2019_Sep_26_1411,MusicAffectPsychophysiology2019,3.0.5,60.2554244311804,
To what extent did the music make you feel ,ANGRY,30MonoWAV/30MonoF2.wav,1,2,2,2,,,,,0,7,7,1,0,4,4,2,,,,,,,,,2,1.7350178209999285,117,001,2019_Sep_26_1411,MusicAffectPsychophysiology2019,3.0.5,60.2554244311804,
To what extent did the music make you feel ,ANXIOUS ,30MonoWAV/30MonoF2.wav,1,2,2,2,,,,,0,7,7,1,0,5,5,1,,,,,,,,,4,1.819885532000626,117,001,2019_Sep_26_1411,MusicAffectPsychophysiology2019,3.0.5,60.2554244311804,
To what extent did the music make you feel ,EXCITED,30MonoWAV/30MonoF2.wav,1,2,2,2,,,,,0,7,7,1,0,6,6,7,,,,,,,,,2,2.4186369359995297,117,001,2019_Sep_26_1411,MusicAffectPsychophysiology2019,3.0.5,60.2554244311804,
To what extent did the music make you feel ,TENDER,30MonoWAV/30MonoF2.wav,1,2,2,2,,,,,0,7,7,1,0,7,7,10,,,,,,,,,1,0.8023553150005682,117,001,2019_Sep_26_1411,MusicAffectPsychophysiology2019,3.0.5,60.2554244311804,
To what extent did the music make you feel ,ACTIVE,30MonoWAV/30MonoF2.wav,1,2,2,2,,,,,0,7,7,1,0,8,8,9,,,,,,,,,3,1.069155944999693,117,001,2019_Sep_26_1411,MusicAffectPsychophysiology2019,3.0.5,60.2554244311804,
To what extent did the music make you feel ,ALERT,30MonoWAV/30MonoF2.wav,1,2,2,2,,,,,0,7,7,1,0,9,9,8,,,,,,,,,3,1.184319553000023,117,001,2019_Sep_26_1411,MusicAffectPsychophysiology2019,3.0.5,60.2554244311804,
To what extent did the music make you feel ,ASHAMED,30MonoWAV/30MonoF2.wav,1,2,2,2,,,,,0,7,7,1,0,10,10,4,,,,,,,,,1,1.183711110999866,117,001,2019_Sep_26_1411,MusicAffectPsychophysiology2019,3.0.5,60.2554244311804,
To what extent did the music make you feel ,SCARED,30MonoWAV/30MonoF2.wav,1,2,2,2,,,,,0,7,7,1,0,11,11,11,,,,,,,,,2,1.3357698809995782,117,001,2019_Sep_26_1411,MusicAffectPsychophysiology2019,3.0.5,60.2554244311804,
,,30MonoWAV/30MonoF2.wav,1,2,2,2,,,,,0,7,7,1,,,,,,,,,,,,,,,117,001,2019_Sep_26_1411,MusicAffectPsychophysiology2019,3.0.5,60.2554244311804,
To what extent did the music make you feel ,TENDER,30MonoWAV/30MonoT3.wav,2,1,4,15,,,,,0,8,8,14,0,0,0,10,,,1,2.8189958220000335,5,2.019442345000243,4,1.2670054969994453,4,2.0614625779999187,117,001,2019_Sep_26_1411,MusicAffectPsychophysiology2019,3.0.5,60.2554244311804,
To what extent did the music make you feel ,ALERT,30MonoWAV/30MonoT3.wav,2,1,4,15,,,,,0,8,8,14,0,1,1,8,,,,,,,,,1,1.8520041020001372,117,001,2019_Sep_26_1411,MusicAffectPsychophysiology2019,3.0.5,60.2554244311804,
To what extent did the music make you feel ,SAD,30MonoWAV/30MonoT3.wav,2,1,4,15,,,,,0,8,8,14,0,2,2,0,,,,,,,,,1,1.2171245109993833,117,001,2019_Sep_26_1411,MusicAffectPsychophysiology2019,3.0.5,60.2554244311804,
To what extent did the music make you feel ,ANGRY,30MonoWAV/30MonoT3.wav,2,1,4,15,,,,,0,8,8,14,0,3,3,2,,,,,,,,,1,0.6518990120002854,117,001,2019_Sep_26_1411,MusicAffectPsychophysiology2019,3.0.5,60.2554244311804,
To what extent did the music make you feel ,ACTIVE,30MonoWAV/30MonoT3.wav,2,1,4,15,,,,,0,8,8,14,0,4,4,9,,,,,,,,,1,0.9331821730002048,117,001,2019_Sep_26_1411,MusicAffectPsychophysiology2019,3.0.5,60.2554244311804,
To what extent did the music make you feel ,HAPPY,30MonoWAV/30MonoT3.wav,2,1,4,15,,,,,0,8,8,14,0,5,5,6,,,,,,,,,3,1.5691819509993366,117,001,2019_Sep_26_1411,MusicAffectPsychophysiology2019,3.0.5,60.2554244311804,
To what extent did the music make you feel ,ANXIOUS ,30MonoWAV/30MonoT3.wav,2,1,4,15,,,,,0,8,8,14,0,6,6,1,,,,,,,,,1,1.9531770600005984,117,001,2019_Sep_26_1411,MusicAffectPsychophysiology2019,3.0.5,60.2554244311804,
To what extent did the music make you feel ,ASHAMED,30MonoWAV/30MonoT3.wav,2,1,4,15,,,,,0,8,8,14,0,7,7,4,,,,,,,,,1,0.5694638549994124,117,001,2019_Sep_26_1411,MusicAffectPsychophysiology2019,3.0.5,60.2554244311804,
To what extent did the music make you feel ,SCARED,30MonoWAV/30MonoT3.wav,2,1,4,15,,,,,0,8,8,14,0,8,8,11,,,,,,,,,1,0.6690955079993728,117,001,2019_Sep_26_1411,MusicAffectPsychophysiology2019,3.0.5,60.2554244311804,
To what extent did the music make you feel ,GUILTY,30MonoWAV/30MonoT3.wav,2,1,4,15,,,,,0,8,8,14,0,9,9,5,,,,,,,,,1,0.6004141080002228,117,001,2019_Sep_26_1411,MusicAffectPsychophysiology2019,3.0.5,60.2554244311804,
To what extent did the music make you feel ,EXCITED,30MonoWAV/30MonoT3.wav,2,1,4,15,,,,,0,8,8,14,0,10,10,7,,,,,,,,,1,1.0686802360005458,117,001,2019_Sep_26_1411,MusicAffectPsychophysiology2019,3.0.5,60.2554244311804,
To what extent did the music make you feel ,FRUSTRATED,30MonoWAV/30MonoT3.wav,2,1,4,15,,,,,0,8,8,14,0,11,11,3,,,,,,,,,1,0.635656079999535,117,001,2019_Sep_26_1411,MusicAffectPsychophysiology2019,3.0.5,60.2554244311804,
,,30MonoWAV/30MonoT3.wav,2,1,4,15,,,,,0,8,8,14,,,,,,,,,,,,,,,117,001,2019_Sep_26_1411,MusicAffectPsychophysiology2019,3.0.5,60.2554244311804,
To what extent did the music make you feel ,SAD,30MonoWAV/30MonoH2.wav,2,2,1,6,,,,,0,9,9,5,0,0,0,0,,,3,2.986411648000285,3,1.252800976000799,3,1.4190910110000914,1,1.9720404449999478,117,001,2019_Sep_26_1411,MusicAffectPsychophysiology2019,3.0.5,60.2554244311804,
To what extent did the music make you feel ,ASHAMED,30MonoWAV/30MonoH2.wav,2,2,1,6,,,,,0,9,9,5,0,1,1,4,,,,,,,,,1,0.8855623090003064,117,001,2019_Sep_26_1411,MusicAffectPsychophysiology2019,3.0.5,60.2554244311804,
To what extent did the music make you feel ,ACTIVE,30MonoWAV/30MonoH2.wav,2,2,1,6,,,,,0,9,9,5,0,2,2,9,,,,,,,,,3,1.9691338349994112,117,001,2019_Sep_26_1411,MusicAffectPsychophysiology2019,3.0.5,60.2554244311804,
To what extent did the music make you feel ,ANXIOUS ,30MonoWAV/30MonoH2.wav,2,2,1,6,,,,,0,9,9,5,0,3,3,1,,,,,,,,,1,1.184773306000352,117,001,2019_Sep_26_1411,MusicAffectPsychophysiology2019,3.0.5,60.2554244311804,
To what extent did the music make you feel ,ANGRY,30MonoWAV/30MonoH2.wav,2,2,1,6,,,,,0,9,9,5,0,4,4,2,,,,,,,,,1,1.1349256519997653,117,001,2019_Sep_26_1411,MusicAffectPsychophysiology2019,3.0.5,60.2554244311804,
To what extent did the music make you feel ,EXCITED,30MonoWAV/30MonoH2.wav,2,2,1,6,,,,,0,9,9,5,0,5,5,7,,,,,,,,,4,3.003622944000199,117,001,2019_Sep_26_1411,MusicAffectPsychophysiology2019,3.0.5,60.2554244311804,
To what extent did the music make you feel ,TENDER,30MonoWAV/30MonoH2.wav,2,2,1,6,,,,,0,9,9,5,0,6,6,10,,,,,,,,,1,1.950973762999638,117,001,2019_Sep_26_1411,MusicAffectPsychophysiology2019,3.0.5,60.2554244311804,
To what extent did the music make you feel ,SCARED,30MonoWAV/30MonoH2.wav,2,2,1,6,,,,,0,9,9,5,0,7,7,11,,,,,,,,,1,0.9022735850003301,117,001,2019_Sep_26_1411,MusicAffectPsychophysiology2019,3.0.5,60.2554244311804,
To what extent did the music make you feel ,HAPPY,30MonoWAV/30MonoH2.wav,2,2,1,6,,,,,0,9,9,5,0,8,8,6,,,,,,,,,3,1.1698686119998456,117,001,2019_Sep_26_1411,MusicAffectPsychophysiology2019,3.0.5,60.2554244311804,
To what extent did the music make you feel ,ALERT,30MonoWAV/30MonoH2.wav,2,2,1,6,,,,,0,9,9,5,0,9,9,8,,,,,,,,,3,1.3830830260003495,117,001,2019_Sep_26_1411,MusicAffectPsychophysiology2019,3.0.5,60.2554244311804,
To what extent did the music make you feel ,GUILTY,30MonoWAV/30MonoH2.wav,2,2,1,6,,,,,0,9,9,5,0,10,10,5,,,,,,,,,1,0.9520543349999571,117,001,2019_Sep_26_1411,MusicAffectPsychophysiology2019,3.0.5,60.2554244311804,
To what extent did the music make you feel ,FRUSTRATED,30MonoWAV/30MonoH2.wav,2,2,1,6,,,,,0,9,9,5,0,11,11,3,,,,,,,,,1,0.7680658199997197,117,001,2019_Sep_26_1411,MusicAffectPsychophysiology2019,3.0.5,60.2554244311804,
,,30MonoWAV/30MonoH2.wav,2,2,1,6,,,,,0,9,9,5,,,,,,,,,,,,,,,117,001,2019_Sep_26_1411,MusicAffectPsychophysiology2019,3.0.5,60.2554244311804,
To what extent did the music make you feel ,HAPPY,30MonoWAV/30MonoF4.wav,1,2,2,4,,,,,0,10,10,3,0,0,0,6,,,3,4.218489457000032,1,3.1020874649993857,2,1.7027045020004152,2,2.548680392999813,117,001,2019_Sep_26_1411,MusicAffectPsychophysiology2019,3.0.5,60.2554244311804,
To what extent did the music make you feel ,EXCITED,30MonoWAV/30MonoF4.wav,1,2,2,4,,,,,0,10,10,3,0,1,1,7,,,,,,,,,3,1.1001692500003628,117,001,2019_Sep_26_1411,MusicAffectPsychophysiology2019,3.0.5,60.2554244311804,
To what extent did the music make you feel ,SCARED,30MonoWAV/30MonoF4.wav,1,2,2,4,,,,,0,10,10,3,0,2,2,11,,,,,,,,,3,1.8689894720000666,117,001,2019_Sep_26_1411,MusicAffectPsychophysiology2019,3.0.5,60.2554244311804,
To what extent did the music make you feel ,ANXIOUS ,30MonoWAV/30MonoF4.wav,1,2,2,4,,,,,0,10,10,3,0,3,3,1,,,,,,,,,3,0.951617097000053,117,001,2019_Sep_26_1411,MusicAffectPsychophysiology2019,3.0.5,60.2554244311804,
To what extent did the music make you feel ,TENDER,30MonoWAV/30MonoF4.wav,1,2,2,4,,,,,0,10,10,3,0,4,4,10,,,,,,,,,1,2.085932139999386,117,001,2019_Sep_26_1411,MusicAffectPsychophysiology2019,3.0.5,60.2554244311804,
To what extent did the music make you feel ,SAD,30MonoWAV/30MonoF4.wav,1,2,2,4,,,,,0,10,10,3,0,5,5,0,,,,,,,,,1,1.086289931000465,117,001,2019_Sep_26_1411,MusicAffectPsychophysiology2019,3.0.5,60.2554244311804,
To what extent did the music make you feel ,FRUSTRATED,30MonoWAV/30MonoF4.wav,1,2,2,4,,,,,0,10,10,3,0,6,6,3,,,,,,,,,1,1.1844014710004558,117,001,2019_Sep_26_1411,MusicAffectPsychophysiology2019,3.0.5,60.2554244311804,
To what extent did the music make you feel ,GUILTY,30MonoWAV/30MonoF4.wav,1,2,2,4,,,,,0,10,10,3,0,7,7,5,,,,,,,,,1,0.9864590959996349,117,001,2019_Sep_26_1411,MusicAffectPsychophysiology2019,3.0.5,60.2554244311804,
To what extent did the music make you feel ,ALERT,30MonoWAV/30MonoF4.wav,1,2,2,4,,,,,0,10,10,3,0,8,8,8,,,,,,,,,2,1.1674189880004633,117,001,2019_Sep_26_1411,MusicAffectPsychophysiology2019,3.0.5,60.2554244311804,
To what extent did the music make you feel ,ASHAMED,30MonoWAV/30MonoF4.wav,1,2,2,4,,,,,0,10,10,3,0,9,9,4,,,,,,,,,1,0.952786293999452,117,001,2019_Sep_26_1411,MusicAffectPsychophysiology2019,3.0.5,60.2554244311804,
To what extent did the music make you feel ,ANGRY,30MonoWAV/30MonoF4.wav,1,2,2,4,,,,,0,10,10,3,0,10,10,2,,,,,,,,,1,1.2503214999996999,117,001,2019_Sep_26_1411,MusicAffectPsychophysiology2019,3.0.5,60.2554244311804,
To what extent did the music make you feel ,ACTIVE,30MonoWAV/30MonoF4.wav,1,2,2,4,,,,,0,10,10,3,0,11,11,9,,,,,,,,,2,1.5178395689999888,117,001,2019_Sep_26_1411,MusicAffectPsychophysiology2019,3.0.5,60.2554244311804,
,,30MonoWAV/30MonoF4.wav,1,2,2,4,,,,,0,10,10,3,,,,,,,,,,,,,,,117,001,2019_Sep_26_1411,MusicAffectPsychophysiology2019,3.0.5,60.2554244311804,
To what extent did the music make you feel ,SCARED,30MonoWAV/30MonoS3.wav,1,1,3,11,,,,,0,11,11,10,0,0,0,11,,,2,5.768047814999591,1,2.9854155920002086,3,1.8679695560003893,3,3.873437236000427,117,001,2019_Sep_26_1411,MusicAffectPsychophysiology2019,3.0.5,60.2554244311804,
To what extent did the music make you feel ,ANXIOUS ,30MonoWAV/30MonoS3.wav,1,1,3,11,,,,,0,11,11,10,0,1,1,1,,,,,,,,,3,0.9850612550008009,117,001,2019_Sep_26_1411,MusicAffectPsychophysiology2019,3.0.5,60.2554244311804,
To what extent did the music make you feel ,SAD,30MonoWAV/30MonoS3.wav,1,1,3,11,,,,,0,11,11,10,0,2,2,0,,,,,,,,,3,3.2167017029996714,117,001,2019_Sep_26_1411,MusicAffectPsychophysiology2019,3.0.5,60.2554244311804,
To what extent did the music make you feel ,FRUSTRATED,30MonoWAV/30MonoS3.wav,1,1,3,11,,,,,0,11,11,10,0,3,3,3,,,,,,,,,1,3.5188431479991777,117,001,2019_Sep_26_1411,MusicAffectPsychophysiology2019,3.0.5,60.2554244311804,
To what extent did the music make you feel ,ACTIVE,30MonoWAV/30MonoS3.wav,1,1,3,11,,,,,0,11,11,10,0,4,4,9,,,,,,,,,1,1.5349215859996548,117,001,2019_Sep_26_1411,MusicAffectPsychophysiology2019,3.0.5,60.2554244311804,
To what extent did the music make you feel ,TENDER,30MonoWAV/30MonoS3.wav,1,1,3,11,,,,,0,11,11,10,0,5,5,10,,,,,,,,,1,1.1520483060003244,117,001,2019_Sep_26_1411,MusicAffectPsychophysiology2019,3.0.5,60.2554244311804,
To what extent did the music make you feel ,ASHAMED,30MonoWAV/30MonoS3.wav,1,1,3,11,,,,,0,11,11,10,0,6,6,4,,,,,,,,,1,7.548775312000544,117,001,2019_Sep_26_1411,MusicAffectPsychophysiology2019,3.0.5,60.2554244311804,
To what extent did the music make you feel ,GUILTY,30MonoWAV/30MonoS3.wav,1,1,3,11,,,,,0,11,11,10,0,7,7,5,,,,,,,,,1,1.2855626099999427,117,001,2019_Sep_26_1411,MusicAffectPsychophysiology2019,3.0.5,60.2554244311804,
To what extent did the music make you feel ,ALERT,30MonoWAV/30MonoS3.wav,1,1,3,11,,,,,0,11,11,10,0,8,8,8,,,,,,,,,2,1.4347915190001004,117,001,2019_Sep_26_1411,MusicAffectPsychophysiology2019,3.0.5,60.2554244311804,
To what extent did the music make you feel ,HAPPY,30MonoWAV/30MonoS3.wav,1,1,3,11,,,,,0,11,11,10,0,9,9,6,,,,,,,,,1,1.4853902240001844,117,001,2019_Sep_26_1411,MusicAffectPsychophysiology2019,3.0.5,60.2554244311804,
To what extent did the music make you feel ,EXCITED,30MonoWAV/30MonoS3.wav,1,1,3,11,,,,,0,11,11,10,0,10,10,7,,,,,,,,,2,1.8188977870004237,117,001,2019_Sep_26_1411,MusicAffectPsychophysiology2019,3.0.5,60.2554244311804,
To what extent did the music make you feel ,ANGRY,30MonoWAV/30MonoS3.wav,1,1,3,11,,,,,0,11,11,10,0,11,11,2,,,,,,,,,1,1.9846617049997803,117,001,2019_Sep_26_1411,MusicAffectPsychophysiology2019,3.0.5,60.2554244311804,
,,30MonoWAV/30MonoS3.wav,1,1,3,11,,,,,0,11,11,10,,,,,,,,,,,,,,,117,001,2019_Sep_26_1411,MusicAffectPsychophysiology2019,3.0.5,60.2554244311804,
To what extent did the music make you feel ,SAD,30MonoWAV/30MonoS1.wav,1,1,3,9,,,,,0,12,12,8,0,0,0,0,,,1,2.9684140159997696,1,1.6335729980000906,4,1.8354637350003031,4,4.032501679999768,117,001,2019_Sep_26_1411,MusicAffectPsychophysiology2019,3.0.5,60.2554244311804,
To what extent did the music make you feel ,ACTIVE,30MonoWAV/30MonoS1.wav,1,1,3,9,,,,,0,12,12,8,0,1,1,9,,,,,,,,,1,0.9677303479993498,117,001,2019_Sep_26_1411,MusicAffectPsychophysiology2019,3.0.5,60.2554244311804,
To what extent did the music make you feel ,ALERT,30MonoWAV/30MonoS1.wav,1,1,3,9,,,,,0,12,12,8,0,2,2,8,,,,,,,,,2,1.2366770730004646,117,001,2019_Sep_26_1411,MusicAffectPsychophysiology2019,3.0.5,60.2554244311804,
To what extent did the music make you feel ,TENDER,30MonoWAV/30MonoS1.wav,1,1,3,9,,,,,0,12,12,8,0,3,3,10,,,,,,,,,2,1.185974590999649,117,001,2019_Sep_26_1411,MusicAffectPsychophysiology2019,3.0.5,60.2554244311804,
To what extent did the music make you feel ,EXCITED,30MonoWAV/30MonoS1.wav,1,1,3,9,,,,,0,12,12,8,0,4,4,7,,,,,,,,,1,1.585879472999295,117,001,2019_Sep_26_1411,MusicAffectPsychophysiology2019,3.0.5,60.2554244311804,
To what extent did the music make you feel ,ASHAMED,30MonoWAV/30MonoS1.wav,1,1,3,9,,,,,0,12,12,8,0,5,5,4,,,,,,,,,1,0.9025442439997278,117,001,2019_Sep_26_1411,MusicAffectPsychophysiology2019,3.0.5,60.2554244311804,
To what extent did the music make you feel ,ANGRY,30MonoWAV/30MonoS1.wav,1,1,3,9,,,,,0,12,12,8,0,6,6,2,,,,,,,,,1,1.3858699940001316,117,001,2019_Sep_26_1411,MusicAffectPsychophysiology2019,3.0.5,60.2554244311804,
To what extent did the music make you feel ,FRUSTRATED,30MonoWAV/30MonoS1.wav,1,1,3,9,,,,,0,12,12,8,0,7,7,3,,,,,,,,,1,0.7032222810003077,117,001,2019_Sep_26_1411,MusicAffectPsychophysiology2019,3.0.5,60.2554244311804,
To what extent did the music make you feel ,GUILTY,30MonoWAV/30MonoS1.wav,1,1,3,9,,,,,0,12,12,8,0,8,8,5,,,,,,,,,2,1.102214473999993,117,001,2019_Sep_26_1411,MusicAffectPsychophysiology2019,3.0.5,60.2554244311804,
To what extent did the music make you feel ,ANXIOUS ,30MonoWAV/30MonoS1.wav,1,1,3,9,,,,,0,12,12,8,0,9,9,1,,,,,,,,,2,2.4023662959998546,117,001,2019_Sep_26_1411,MusicAffectPsychophysiology2019,3.0.5,60.2554244311804,
To what extent did the music make you feel ,HAPPY,30MonoWAV/30MonoS1.wav,1,1,3,9,,,,,0,12,12,8,0,10,10,6,,,,,,,,,1,3.3688529129995004,117,001,2019_Sep_26_1411,MusicAffectPsychophysiology2019,3.0.5,60.2554244311804,
To what extent did the music make you feel ,SCARED,30MonoWAV/30MonoS1.wav,1,1,3,9,,,,,0,12,12,8,0,11,11,11,,,,,,,,,2,1.50185955500001,117,001,2019_Sep_26_1411,MusicAffectPsychophysiology2019,3.0.5,60.2554244311804,
,,30MonoWAV/30MonoS1.wav,1,1,3,9,,,,,0,12,12,8,,,,,,,,,,,,,,,117,001,2019_Sep_26_1411,MusicAffectPsychophysiology2019,3.0.5,60.2554244311804,
To what extent did the music make you feel ,HAPPY,30MonoWAV/30MonoT4.wav,2,1,4,16,,,,,0,13,13,15,0,0,0,6,,,3,2.5855917429998954,2,1.6519536040013918,3,1.5693180409998604,2,1.691776044001017,117,001,2019_Sep_26_1411,MusicAffectPsychophysiology2019,3.0.5,60.2554244311804,
To what extent did the music make you feel ,EXCITED,30MonoWAV/30MonoT4.wav,2,1,4,16,,,,,0,13,13,15,0,1,1,7,,,,,,,,,2,2.000307571999656,117,001,2019_Sep_26_1411,MusicAffectPsychophysiology2019,3.0.5,60.2554244311804,
To what extent did the music make you feel ,TENDER,30MonoWAV/30MonoT4.wav,2,1,4,16,,,,,0,13,13,15,0,2,2,10,,,,,,,,,2,1.0026796140009537,117,001,2019_Sep_26_1411,MusicAffectPsychophysiology2019,3.0.5,60.2554244311804,
To what extent did the music make you feel ,SCARED,30MonoWAV/30MonoT4.wav,2,1,4,16,,,,,0,13,13,15,0,3,3,11,,,,,,,,,1,1.4840681400000904,117,001,2019_Sep_26_1411,MusicAffectPsychophysiology2019,3.0.5,60.2554244311804,
To what extent did the music make you feel ,ALERT,30MonoWAV/30MonoT4.wav,2,1,4,16,,,,,0,13,13,15,0,4,4,8,,,,,,,,,2,0.9692251479991683,117,001,2019_Sep_26_1411,MusicAffectPsychophysiology2019,3.0.5,60.2554244311804,
To what extent did the music make you feel ,ANGRY,30MonoWAV/30MonoT4.wav,2,1,4,16,,,,,0,13,13,15,0,5,5,2,,,,,,,,,1,1.0031164579995675,117,001,2019_Sep_26_1411,MusicAffectPsychophysiology2019,3.0.5,60.2554244311804,
To what extent did the music make you feel ,GUILTY,30MonoWAV/30MonoT4.wav,2,1,4,16,,,,,0,13,13,15,0,6,6,5,,,,,,,,,1,1.2039736209990224,117,001,2019_Sep_26_1411,MusicAffectPsychophysiology2019,3.0.5,60.2554244311804,
To what extent did the music make you feel ,ASHAMED,30MonoWAV/30MonoT4.wav,2,1,4,16,,,,,0,13,13,15,0,7,7,4,,,,,,,,,1,1.203442363999784,117,001,2019_Sep_26_1411,MusicAffectPsychophysiology2019,3.0.5,60.2554244311804,
To what extent did the music make you feel ,ANXIOUS ,30MonoWAV/30MonoT4.wav,2,1,4,16,,,,,0,13,13,15,0,8,8,1,,,,,,,,,1,1.0499062800008687,117,001,2019_Sep_26_1411,MusicAffectPsychophysiology2019,3.0.5,60.2554244311804,
To what extent did the music make you feel ,ACTIVE,30MonoWAV/30MonoT4.wav,2,1,4,16,,,,,0,13,13,15,0,9,9,9,,,,,,,,,1,1.1688889899996866,117,001,2019_Sep_26_1411,MusicAffectPsychophysiology2019,3.0.5,60.2554244311804,
To what extent did the music make you feel ,SAD,30MonoWAV/30MonoT4.wav,2,1,4,16,,,,,0,13,13,15,0,10,10,0,,,,,,,,,2,1.9833933999998408,117,001,2019_Sep_26_1411,MusicAffectPsychophysiology2019,3.0.5,60.2554244311804,
To what extent did the music make you feel ,FRUSTRATED,30MonoWAV/30MonoT4.wav,2,1,4,16,,,,,0,13,13,15,0,11,11,3,,,,,,,,,1,0.8749672520007152,117,001,2019_Sep_26_1411,MusicAffectPsychophysiology2019,3.0.5,60.2554244311804,
,,30MonoWAV/30MonoT4.wav,2,1,4,16,,,,,0,13,13,15,,,,,,,,,,,,,,,117,001,2019_Sep_26_1411,MusicAffectPsychophysiology2019,3.0.5,60.2554244311804,
To what extent did the music make you feel ,ALERT,30MonoWAV/30MonoH3.wav,2,2,1,7,,,,,0,14,14,6,0,0,0,8,,,3,4.169121042999905,3,1.3844785430010234,3,1.8186410529997374,3,1.8690080490014225,117,001,2019_Sep_26_1411,MusicAffectPsychophysiology2019,3.0.5,60.2554244311804,
To what extent did the music make you feel ,TENDER,30MonoWAV/30MonoH3.wav,2,2,1,7,,,,,0,14,14,6,0,1,1,10,,,,,,,,,2,1.0857206909986417,117,001,2019_Sep_26_1411,MusicAffectPsychophysiology2019,3.0.5,60.2554244311804,
To what extent did the music make you feel ,SCARED,30MonoWAV/30MonoH3.wav,2,2,1,7,,,,,0,14,14,6,0,2,2,11,,,,,,,,,1,1.135408431999167,117,001,2019_Sep_26_1411,MusicAffectPsychophysiology2019,3.0.5,60.2554244311804,
To what extent did the music make you feel ,ANGRY,30MonoWAV/30MonoH3.wav,2,2,1,7,,,,,0,14,14,6,0,3,3,2,,,,,,,,,1,0.7859488539997983,117,001,2019_Sep_26_1411,MusicAffectPsychophysiology2019,3.0.5,60.2554244311804,
To what extent did the music make you feel ,ACTIVE,30MonoWAV/30MonoH3.wav,2,2,1,7,,,,,0,14,14,6,0,4,4,9,,,,,,,,,1,0.9862268640008551,117,001,2019_Sep_26_1411,MusicAffectPsychophysiology2019,3.0.5,60.2554244311804,
To what extent did the music make you feel ,SAD,30MonoWAV/30MonoH3.wav,2,2,1,7,,,,,0,14,14,6,0,5,5,0,,,,,,,,,1,0.8691408880004019,117,001,2019_Sep_26_1411,MusicAffectPsychophysiology2019,3.0.5,60.2554244311804,
To what extent did the music make you feel ,HAPPY,30MonoWAV/30MonoH3.wav,2,2,1,7,,,,,0,14,14,6,0,6,6,6,,,,,,,,,3,1.9845922549993702,117,001,2019_Sep_26_1411,MusicAffectPsychophysiology2019,3.0.5,60.2554244311804,
To what extent did the music make you feel ,EXCITED,30MonoWAV/30MonoH3.wav,2,2,1,7,,,,,0,14,14,6,0,7,7,7,,,,,,,,,4,1.1697605540011864,117,001,2019_Sep_26_1411,MusicAffectPsychophysiology2019,3.0.5,60.2554244311804,
To what extent did the music make you feel ,FRUSTRATED,30MonoWAV/30MonoH3.wav,2,2,1,7,,,,,0,14,14,6,0,8,8,3,,,,,,,,,1,1.167891609000435,117,001,2019_Sep_26_1411,MusicAffectPsychophysiology2019,3.0.5,60.2554244311804,
To what extent did the music make you feel ,ANXIOUS ,30MonoWAV/30MonoH3.wav,2,2,1,7,,,,,0,14,14,6,0,9,9,1,,,,,,,,,2,1.7345572859994718,117,001,2019_Sep_26_1411,MusicAffectPsychophysiology2019,3.0.5,60.2554244311804,
To what extent did the music make you feel ,GUILTY,30MonoWAV/30MonoH3.wav,2,2,1,7,,,,,0,14,14,6,0,10,10,5,,,,,,,,,1,2.002982299998621,117,001,2019_Sep_26_1411,MusicAffectPsychophysiology2019,3.0.5,60.2554244311804,
To what extent did the music make you feel ,ASHAMED,30MonoWAV/30MonoH3.wav,2,2,1,7,,,,,0,14,14,6,0,11,11,4,,,,,,,,,1,0.6858674159993825,117,001,2019_Sep_26_1411,MusicAffectPsychophysiology2019,3.0.5,60.2554244311804,
,,30MonoWAV/30MonoH3.wav,2,2,1,7,,,,,0,14,14,6,,,,,,,,,,,,,,,117,001,2019_Sep_26_1411,MusicAffectPsychophysiology2019,3.0.5,60.2554244311804,
To what extent did the music make you feel ,GUILTY,30MonoWAV/30MonoS4.wav,1,1,3,12,,,,,0,15,15,11,0,0,0,5,,,1,3.852060151999467,2,3.320037000999946,4,2.402631889000986,1,2.9598891460009327,117,001,2019_Sep_26_1411,MusicAffectPsychophysiology2019,3.0.5,60.2554244311804,
To what extent did the music make you feel ,FRUSTRATED,30MonoWAV/30MonoS4.wav,1,1,3,12,,,,,0,15,15,11,0,1,1,3,,,,,,,,,1,0.9349250300001586,117,001,2019_Sep_26_1411,MusicAffectPsychophysiology2019,3.0.5,60.2554244311804,
To what extent did the music make you feel ,HAPPY,30MonoWAV/30MonoS4.wav,1,1,3,12,,,,,0,15,15,11,0,2,2,6,,,,,,,,,1,1.601936940000087,117,001,2019_Sep_26_1411,MusicAffectPsychophysiology2019,3.0.5,60.2554244311804,
To what extent did the music make you feel ,ALERT,30MonoWAV/30MonoS4.wav,1,1,3,12,,,,,0,15,15,11,0,3,3,8,,,,,,,,,2,1.202146746998551,117,001,2019_Sep_26_1411,MusicAffectPsychophysiology2019,3.0.5,60.2554244311804,
To what extent did the music make you feel ,ACTIVE,30MonoWAV/30MonoS4.wav,1,1,3,12,,,,,0,15,15,11,0,4,4,9,,,,,,,,,1,0.7694538359992293,117,001,2019_Sep_26_1411,MusicAffectPsychophysiology2019,3.0.5,60.2554244311804,
To what extent did the music make you feel ,TENDER,30MonoWAV/30MonoS4.wav,1,1,3,12,,,,,0,15,15,11,0,5,5,10,,,,,,,,,2,1.9523790100010956,117,001,2019_Sep_26_1411,MusicAffectPsychophysiology2019,3.0.5,60.2554244311804,
To what extent did the music make you feel ,SAD,30MonoWAV/30MonoS4.wav,1,1,3,12,,,,,0,15,15,11,0,6,6,0,,,,,,,,,3,0.9524227040001279,117,001,2019_Sep_26_1411,MusicAffectPsychophysiology2019,3.0.5,60.2554244311804,
To what extent did the music make you feel ,ANGRY,30MonoWAV/30MonoS4.wav,1,1,3,12,,,,,0,15,15,11,0,7,7,2,,,,,,,,,1,0.9524491489992215,117,001,2019_Sep_26_1411,MusicAffectPsychophysiology2019,3.0.5,60.2554244311804,
To what extent did the music make you feel ,ASHAMED,30MonoWAV/30MonoS4.wav,1,1,3,12,,,,,0,15,15,11,0,8,8,4,,,,,,,,,2,1.1531905459996779,117,001,2019_Sep_26_1411,MusicAffectPsychophysiology2019,3.0.5,60.2554244311804,
To what extent did the music make you feel ,ANXIOUS ,30MonoWAV/30MonoS4.wav,1,1,3,12,,,,,0,15,15,11,0,9,9,1,,,,,,,,,1,1.0355143140004657,117,001,2019_Sep_26_1411,MusicAffectPsychophysiology2019,3.0.5,60.2554244311804,
To what extent did the music make you feel ,SCARED,30MonoWAV/30MonoS4.wav,1,1,3,12,,,,,0,15,15,11,0,10,10,11,,,,,,,,,1,1.103633472999718,117,001,2019_Sep_26_1411,MusicAffectPsychophysiology2019,3.0.5,60.2554244311804,
To what extent did the music make you feel ,EXCITED,30MonoWAV/30MonoS4.wav,1,1,3,12,,,,,0,15,15,11,0,11,11,7,,,,,,,,,1,1.25245891799932,117,001,2019_Sep_26_1411,MusicAffectPsychophysiology2019,3.0.5,60.2554244311804,
,,30MonoWAV/30MonoS4.wav,1,1,3,12,,,,,0,15,15,11,,,,,,,,,,,,,,,117,001,2019_Sep_26_1411,MusicAffectPsychophysiology2019,3.0.5,60.2554244311804,
To what extent did the music make you feel ,GUILTY,30MonoWAV/30MonoS2.wav,1,1,3,10,,,,,1,0,16,9,0,0,0,5,,,1,4.102250413001457,1,1.1193327790006151,2,1.2191144059997896,2,1.8537591919994156,117,001,2019_Sep_26_1411,MusicAffectPsychophysiology2019,3.0.5,60.2554244311804,
To what extent did the music make you feel ,EXCITED,30MonoWAV/30MonoS2.wav,1,1,3,10,,,,,1,0,16,9,0,1,1,7,,,,,,,,,1,0.8363593200010655,117,001,2019_Sep_26_1411,MusicAffectPsychophysiology2019,3.0.5,60.2554244311804,
To what extent did the music make you feel ,HAPPY,30MonoWAV/30MonoS2.wav,1,1,3,10,,,,,1,0,16,9,0,2,2,6,,,,,,,,,1,0.7354572869990079,117,001,2019_Sep_26_1411,MusicAffectPsychophysiology2019,3.0.5,60.2554244311804,
To what extent did the music make you feel ,ACTIVE,30MonoWAV/30MonoS2.wav,1,1,3,10,,,,,1,0,16,9,0,3,3,9,,,,,,,,,1,1.0192889150002884,117,001,2019_Sep_26_1411,MusicAffectPsychophysiology2019,3.0.5,60.2554244311804,
To what extent did the music make you feel ,FRUSTRATED,30MonoWAV/30MonoS2.wav,1,1,3,10,,,,,1,0,16,9,0,4,4,3,,,,,,,,,1,1.1979592780007806,117,001,2019_Sep_26_1411,MusicAffectPsychophysiology2019,3.0.5,60.2554244311804,
To what extent did the music make you feel ,ANGRY,30MonoWAV/30MonoS2.wav,1,1,3,10,,,,,1,0,16,9,0,5,5,2,,,,,,,,,1,1.587123478000649,117,001,2019_Sep_26_1411,MusicAffectPsychophysiology2019,3.0.5,60.2554244311804,
To what extent did the music make you feel ,SCARED,30MonoWAV/30MonoS2.wav,1,1,3,10,,,,,1,0,16,9,0,6,6,11,,,,,,,,,2,1.4686555259995657,117,001,2019_Sep_26_1411,MusicAffectPsychophysiology2019,3.0.5,60.2554244311804,
To what extent did the music make you feel ,ASHAMED,30MonoWAV/30MonoS2.wav,1,1,3,10,,,,,1,0,16,9,0,7,7,4,,,,,,,,,1,1.1521618959995976,117,001,2019_Sep_26_1411,MusicAffectPsychophysiology2019,3.0.5,60.2554244311804,
To what extent did the music make you feel ,ALERT,30MonoWAV/30MonoS2.wav,1,1,3,10,,,,,1,0,16,9,0,8,8,8,,,,,,,,,2,1.2355324370000744,117,001,2019_Sep_26_1411,MusicAffectPsychophysiology2019,3.0.5,60.2554244311804,
To what extent did the music make you feel ,SAD,30MonoWAV/30MonoS2.wav,1,1,3,10,,,,,1,0,16,9,0,9,9,0,,,,,,,,,3,0.787003879000622,117,001,2019_Sep_26_1411,MusicAffectPsychophysiology2019,3.0.5,60.2554244311804,
To what extent did the music make you feel ,ANXIOUS ,30MonoWAV/30MonoS2.wav,1,1,3,10,,,,,1,0,16,9,0,10,10,1,,,,,,,,,3,1.2020396380012244,117,001,2019_Sep_26_1411,MusicAffectPsychophysiology2019,3.0.5,60.2554244311804,
To what extent did the music make you feel ,TENDER,30MonoWAV/30MonoS2.wav,1,1,3,10,,,,,1,0,16,9,0,11,11,10,,,,,,,,,1,1.418503683000381,117,001,2019_Sep_26_1411,MusicAffectPsychophysiology2019,3.0.5,60.2554244311804,
,,30MonoWAV/30MonoS2.wav,1,1,3,10,,,,,1,0,16,9,,,,,,,,,,,,,,,117,001,2019_Sep_26_1411,MusicAffectPsychophysiology2019,3.0.5,60.2554244311804,
To what extent did the music make you feel ,GUILTY,30MonoWAV/30MonoF2.wav,1,2,2,2,,,,,1,1,17,1,0,0,0,5,,,2,4.968728711000949,1,2.069238433999999,2,1.3698271849989396,2,1.6148576850009704,117,001,2019_Sep_26_1411,MusicAffectPsychophysiology2019,3.0.5,60.2554244311804,
To what extent did the music make you feel ,SAD,30MonoWAV/30MonoF2.wav,1,2,2,2,,,,,1,1,17,1,0,1,1,0,,,,,,,,,1,1.083222907000163,117,001,2019_Sep_26_1411,MusicAffectPsychophysiology2019,3.0.5,60.2554244311804,
To what extent did the music make you feel ,ANXIOUS ,30MonoWAV/30MonoF2.wav,1,2,2,2,,,,,1,1,17,1,0,2,2,1,,,,,,,,,3,1.0513434019994747,117,001,2019_Sep_26_1411,MusicAffectPsychophysiology2019,3.0.5,60.2554244311804,
To what extent did the music make you feel ,ALERT,30MonoWAV/30MonoF2.wav,1,2,2,2,,,,,1,1,17,1,0,3,3,8,,,,,,,,,2,1.1351595489995816,117,001,2019_Sep_26_1411,MusicAffectPsychophysiology2019,3.0.5,60.2554244311804,
To what extent did the music make you feel ,EXCITED,30MonoWAV/30MonoF2.wav,1,2,2,2,,,,,1,1,17,1,0,4,4,7,,,,,,,,,1,5.634702480998385,117,001,2019_Sep_26_1411,MusicAffectPsychophysiology2019,3.0.5,60.2554244311804,
To what extent did the music make you feel ,SCARED,30MonoWAV/30MonoF2.wav,1,2,2,2,,,,,1,1,17,1,0,5,5,11,,,,,,,,,3,1.984687947000566,117,001,2019_Sep_26_1411,MusicAffectPsychophysiology2019,3.0.5,60.2554244311804,
To what extent did the music make you feel ,ANGRY,30MonoWAV/30MonoF2.wav,1,2,2,2,,,,,1,1,17,1,0,6,6,2,,,,,,,,,1,3.0034299609997106,117,001,2019_Sep_26_1411,MusicAffectPsychophysiology2019,3.0.5,60.2554244311804,
To what extent did the music make you feel ,HAPPY,30MonoWAV/30MonoF2.wav,1,2,2,2,,,,,1,1,17,1,0,7,7,6,,,,,,,,,2,0.8038684290004312,117,001,2019_Sep_26_1411,MusicAffectPsychophysiology2019,3.0.5,60.2554244311804,
To what extent did the music make you feel ,ASHAMED,30MonoWAV/30MonoF2.wav,1,2,2,2,,,,,1,1,17,1,0,8,8,4,,,,,,,,,2,3.4849138329991547,117,001,2019_Sep_26_1411,MusicAffectPsychophysiology2019,3.0.5,60.2554244311804,
To what extent did the music make you feel ,ACTIVE,30MonoWAV/30MonoF2.wav,1,2,2,2,,,,,1,1,17,1,0,9,9,9,,,,,,,,,1,0.9354591270002857,117,001,2019_Sep_26_1411,MusicAffectPsychophysiology2019,3.0.5,60.2554244311804,
To what extent did the music make you feel ,FRUSTRATED,30MonoWAV/30MonoF2.wav,1,2,2,2,,,,,1,1,17,1,0,10,10,3,,,,,,,,,2,2.119956241998807,117,001,2019_Sep_26_1411,MusicAffectPsychophysiology2019,3.0.5,60.2554244311804,
To what extent did the music make you feel ,TENDER,30MonoWAV/30MonoF2.wav,1,2,2,2,,,,,1,1,17,1,0,11,11,10,,,,,,,,,1,0.8517125060006947,117,001,2019_Sep_26_1411,MusicAffectPsychophysiology2019,3.0.5,60.2554244311804,
,,30MonoWAV/30MonoF2.wav,1,2,2,2,,,,,1,1,17,1,,,,,,,,,,,,,,,117,001,2019_Sep_26_1411,MusicAffectPsychophysiology2019,3.0.5,60.2554244311804,
To what extent did the music make you feel ,ANXIOUS ,30MonoWAV/30MonoH1.wav,2,2,1,5,,,,,1,2,18,4,0,0,0,1,,,3,3.3017665400002443,2,1.3684565820003627,4,1.4364524859993253,2,1.9227323260001867,117,001,2019_Sep_26_1411,MusicAffectPsychophysiology2019,3.0.5,60.2554244311804,
To what extent did the music make you feel ,SAD,30MonoWAV/30MonoH1.wav,2,2,1,5,,,,,1,2,18,4,0,1,1,0,,,,,,,,,1,1.0354912460006744,117,001,2019_Sep_26_1411,MusicAffectPsychophysiology2019,3.0.5,60.2554244311804,
To what extent did the music make you feel ,HAPPY,30MonoWAV/30MonoH1.wav,2,2,1,5,,,,,1,2,18,4,0,2,2,6,,,,,,,,,2,1.203228966000097,117,001,2019_Sep_26_1411,MusicAffectPsychophysiology2019,3.0.5,60.2554244311804,
To what extent did the music make you feel ,GUILTY,30MonoWAV/30MonoH1.wav,2,2,1,5,,,,,1,2,18,4,0,3,3,5,,,,,,,,,1,1.1185827600002085,117,001,2019_Sep_26_1411,MusicAffectPsychophysiology2019,3.0.5,60.2554244311804,
To what extent did the music make you feel ,ACTIVE,30MonoWAV/30MonoH1.wav,2,2,1,5,,,,,1,2,18,4,0,4,4,9,,,,,,,,,2,1.8359829870005342,117,001,2019_Sep_26_1411,MusicAffectPsychophysiology2019,3.0.5,60.2554244311804,
To what extent did the music make you feel ,EXCITED,30MonoWAV/30MonoH1.wav,2,2,1,5,,,,,1,2,18,4,0,5,5,7,,,,,,,,,3,1.1188865340009215,117,001,2019_Sep_26_1411,MusicAffectPsychophysiology2019,3.0.5,60.2554244311804,
To what extent did the music make you feel ,ALERT,30MonoWAV/30MonoH1.wav,2,2,1,5,,,,,1,2,18,4,0,6,6,8,,,,,,,,,3,1.3854165020002256,117,001,2019_Sep_26_1411,MusicAffectPsychophysiology2019,3.0.5,60.2554244311804,
To what extent did the music make you feel ,ANGRY,30MonoWAV/30MonoH1.wav,2,2,1,5,,,,,1,2,18,4,0,7,7,2,,,,,,,,,1,1.2684992169997713,117,001,2019_Sep_26_1411,MusicAffectPsychophysiology2019,3.0.5,60.2554244311804,
To what extent did the music make you feel ,TENDER,30MonoWAV/30MonoH1.wav,2,2,1,5,,,,,1,2,18,4,0,8,8,10,,,,,,,,,2,1.1691331179990812,117,001,2019_Sep_26_1411,MusicAffectPsychophysiology2019,3.0.5,60.2554244311804,
To what extent did the music make you feel ,ASHAMED,30MonoWAV/30MonoH1.wav,2,2,1,5,,,,,1,2,18,4,0,9,9,4,,,,,,,,,1,0.8516320299986546,117,001,2019_Sep_26_1411,MusicAffectPsychophysiology2019,3.0.5,60.2554244311804,
To what extent did the music make you feel ,SCARED,30MonoWAV/30MonoH1.wav,2,2,1,5,,,,,1,2,18,4,0,10,10,11,,,,,,,,,1,1.452910467000038,117,001,2019_Sep_26_1411,MusicAffectPsychophysiology2019,3.0.5,60.2554244311804,
To what extent did the music make you feel ,FRUSTRATED,30MonoWAV/30MonoH1.wav,2,2,1,5,,,,,1,2,18,4,0,11,11,3,,,,,,,,,1,1.020483313999648,117,001,2019_Sep_26_1411,MusicAffectPsychophysiology2019,3.0.5,60.2554244311804,
,,30MonoWAV/30MonoH1.wav,2,2,1,5,,,,,1,2,18,4,,,,,,,,,,,,,,,117,001,2019_Sep_26_1411,MusicAffectPsychophysiology2019,3.0.5,60.2554244311804,
To what extent did the music make you feel ,SAD,30MonoWAV/30MonoH2.wav,2,2,1,6,,,,,1,3,19,5,0,0,0,0,,,3,2.485203091000585,2,1.1349136289991293,3,2.485299791000216,1,0.9681746559999738,117,001,2019_Sep_26_1411,MusicAffectPsychophysiology2019,3.0.5,60.2554244311804,
To what extent did the music make you feel ,ACTIVE,30MonoWAV/30MonoH2.wav,2,2,1,6,,,,,1,3,19,5,0,1,1,9,,,,,,,,,2,1.7856862459993863,117,001,2019_Sep_26_1411,MusicAffectPsychophysiology2019,3.0.5,60.2554244311804,
To what extent did the music make you feel ,ANGRY,30MonoWAV/30MonoH2.wav,2,2,1,6,,,,,1,3,19,5,0,2,2,2,,,,,,,,,1,1.084049204000621,117,001,2019_Sep_26_1411,MusicAffectPsychophysiology2019,3.0.5,60.2554244311804,
To what extent did the music make you feel ,ANXIOUS ,30MonoWAV/30MonoH2.wav,2,2,1,6,,,,,1,3,19,5,0,3,3,1,,,,,,,,,1,1.1028371089996654,117,001,2019_Sep_26_1411,MusicAffectPsychophysiology2019,3.0.5,60.2554244311804,
To what extent did the music make you feel ,HAPPY,30MonoWAV/30MonoH2.wav,2,2,1,6,,,,,1,3,19,5,0,4,4,6,,,,,,,,,4,1.7012410770003044,117,001,2019_Sep_26_1411,MusicAffectPsychophysiology2019,3.0.5,60.2554244311804,
To what extent did the music make you feel ,GUILTY,30MonoWAV/30MonoH2.wav,2,2,1,6,,,,,1,3,19,5,0,5,5,5,,,,,,,,,1,0.9530986319987278,117,001,2019_Sep_26_1411,MusicAffectPsychophysiology2019,3.0.5,60.2554244311804,
To what extent did the music make you feel ,ASHAMED,30MonoWAV/30MonoH2.wav,2,2,1,6,,,,,1,3,19,5,0,6,6,4,,,,,,,,,1,1.10279442799947,117,001,2019_Sep_26_1411,MusicAffectPsychophysiology2019,3.0.5,60.2554244311804,
To what extent did the music make you feel ,SCARED,30MonoWAV/30MonoH2.wav,2,2,1,6,,,,,1,3,19,5,0,7,7,11,,,,,,,,,1,2.119248585000605,117,001,2019_Sep_26_1411,MusicAffectPsychophysiology2019,3.0.5,60.2554244311804,
To what extent did the music make you feel ,ALERT,30MonoWAV/30MonoH2.wav,2,2,1,6,,,,,1,3,19,5,0,8,8,8,,,,,,,,,4,1.734119267001006,117,001,2019_Sep_26_1411,MusicAffectPsychophysiology2019,3.0.5,60.2554244311804,
To what extent did the music make you feel ,FRUSTRATED,30MonoWAV/30MonoH2.wav,2,2,1,6,,,,,1,3,19,5,0,9,9,3,,,,,,,,,1,1.402269537000393,117,001,2019_Sep_26_1411,MusicAffectPsychophysiology2019,3.0.5,60.2554244311804,
To what extent did the music make you feel ,TENDER,30MonoWAV/30MonoH2.wav,2,2,1,6,,,,,1,3,19,5,0,10,10,10,,,,,,,,,2,0.983945173000393,117,001,2019_Sep_26_1411,MusicAffectPsychophysiology2019,3.0.5,60.2554244311804,
To what extent did the music make you feel ,EXCITED,30MonoWAV/30MonoH2.wav,2,2,1,6,,,,,1,3,19,5,0,11,11,7,,,,,,,,,4,1.4527839349993883,117,001,2019_Sep_26_1411,MusicAffectPsychophysiology2019,3.0.5,60.2554244311804,
,,30MonoWAV/30MonoH2.wav,2,2,1,6,,,,,1,3,19,5,,,,,,,,,,,,,,,117,001,2019_Sep_26_1411,MusicAffectPsychophysiology2019,3.0.5,60.2554244311804,
To what extent did the music make you feel ,ACTIVE,30MonoWAV/30MonoS1.wav,1,1,3,9,,,,,1,4,20,8,0,0,0,9,,,2,2.918545279000682,2,1.4670065840000461,3,1.3988268450011674,1,2.169216543999937,117,001,2019_Sep_26_1411,MusicAffectPsychophysiology2019,3.0.5,60.2554244311804,
To what extent did the music make you feel ,SAD,30MonoWAV/30MonoS1.wav,1,1,3,9,,,,,1,4,20,8,0,1,1,0,,,,,,,,,2,0.9691161860009743,117,001,2019_Sep_26_1411,MusicAffectPsychophysiology2019,3.0.5,60.2554244311804,
To what extent did the music make you feel ,TENDER,30MonoWAV/30MonoS1.wav,1,1,3,9,,,,,1,4,20,8,0,2,2,10,,,,,,,,,2,1.534457312000086,117,001,2019_Sep_26_1411,MusicAffectPsychophysiology2019,3.0.5,60.2554244311804,
To what extent did the music make you feel ,EXCITED,30MonoWAV/30MonoS1.wav,1,1,3,9,,,,,1,4,20,8,0,3,3,7,,,,,,,,,1,1.7688614039998356,117,001,2019_Sep_26_1411,MusicAffectPsychophysiology2019,3.0.5,60.2554244311804,
To what extent did the music make you feel ,GUILTY,30MonoWAV/30MonoS1.wav,1,1,3,9,,,,,1,4,20,8,0,4,4,5,,,,,,,,,1,0.8867390889990929,117,001,2019_Sep_26_1411,MusicAffectPsychophysiology2019,3.0.5,60.2554244311804,
To what extent did the music make you feel ,ASHAMED,30MonoWAV/30MonoS1.wav,1,1,3,9,,,,,1,4,20,8,0,5,5,4,,,,,,,,,2,1.2856463719999738,117,001,2019_Sep_26_1411,MusicAffectPsychophysiology2019,3.0.5,60.2554244311804,
To what extent did the music make you feel ,FRUSTRATED,30MonoWAV/30MonoS1.wav,1,1,3,9,,,,,1,4,20,8,0,6,6,3,,,,,,,,,1,0.8906430950009963,117,001,2019_Sep_26_1411,MusicAffectPsychophysiology2019,3.0.5,60.2554244311804,
To what extent did the music make you feel ,HAPPY,30MonoWAV/30MonoS1.wav,1,1,3,9,,,,,1,4,20,8,0,7,7,6,,,,,,,,,2,3.702668893000009,117,001,2019_Sep_26_1411,MusicAffectPsychophysiology2019,3.0.5,60.2554244311804,
To what extent did the music make you feel ,SCARED,30MonoWAV/30MonoS1.wav,1,1,3,9,,,,,1,4,20,8,0,8,8,11,,,,,,,,,2,1.6192105230002198,117,001,2019_Sep_26_1411,MusicAffectPsychophysiology2019,3.0.5,60.2554244311804,
To what extent did the music make you feel ,ANXIOUS ,30MonoWAV/30MonoS1.wav,1,1,3,9,,,,,1,4,20,8,0,9,9,1,,,,,,,,,3,2.2686193579993414,117,001,2019_Sep_26_1411,MusicAffectPsychophysiology2019,3.0.5,60.2554244311804,
To what extent did the music make you feel ,ANGRY,30MonoWAV/30MonoS1.wav,1,1,3,9,,,,,1,4,20,8,0,10,10,2,,,,,,,,,1,1.2691643010002736,117,001,2019_Sep_26_1411,MusicAffectPsychophysiology2019,3.0.5,60.2554244311804,
To what extent did the music make you feel ,ALERT,30MonoWAV/30MonoS1.wav,1,1,3,9,,,,,1,4,20,8,0,11,11,8,,,,,,,,,3,2.13389045599979,117,001,2019_Sep_26_1411,MusicAffectPsychophysiology2019,3.0.5,60.2554244311804,
,,30MonoWAV/30MonoS1.wav,1,1,3,9,,,,,1,4,20,8,,,,,,,,,,,,,,,117,001,2019_Sep_26_1411,MusicAffectPsychophysiology2019,3.0.5,60.2554244311804,
To what extent did the music make you feel ,ANGRY,30MonoWAV/30MonoS4.wav,1,1,3,12,,,,,1,5,21,11,0,0,0,2,,,1,4.051364564000323,1,1.219575832999908,2,1.5688319470009446,1,1.0190072789991973,117,001,2019_Sep_26_1411,MusicAffectPsychophysiology2019,3.0.5,60.2554244311804,
To what extent did the music make you feel ,TENDER,30MonoWAV/30MonoS4.wav,1,1,3,12,,,,,1,5,21,11,0,1,1,10,,,,,,,,,2,0.8844478280007024,117,001,2019_Sep_26_1411,MusicAffectPsychophysiology2019,3.0.5,60.2554244311804,
To what extent did the music make you feel ,FRUSTRATED,30MonoWAV/30MonoS4.wav,1,1,3,12,,,,,1,5,21,11,0,2,2,3,,,,,,,,,1,0.8679174210010387,117,001,2019_Sep_26_1411,MusicAffectPsychophysiology2019,3.0.5,60.2554244311804,
To what extent did the music make you feel ,ASHAMED,30MonoWAV/30MonoS4.wav,1,1,3,12,,,,,1,5,21,11,0,3,3,4,,,,,,,,,1,0.9353896920001716,117,001,2019_Sep_26_1411,MusicAffectPsychophysiology2019,3.0.5,60.2554244311804,
To what extent did the music make you feel ,ANXIOUS ,30MonoWAV/30MonoS4.wav,1,1,3,12,,,,,1,5,21,11,0,4,4,1,,,,,,,,,3,0.9855788340009894,117,001,2019_Sep_26_1411,MusicAffectPsychophysiology2019,3.0.5,60.2554244311804,
To what extent did the music make you feel ,GUILTY,30MonoWAV/30MonoS4.wav,1,1,3,12,,,,,1,5,21,11,0,5,5,5,,,,,,,,,1,1.5349743030001264,117,001,2019_Sep_26_1411,MusicAffectPsychophysiology2019,3.0.5,60.2554244311804,
To what extent did the music make you feel ,SCARED,30MonoWAV/30MonoS4.wav,1,1,3,12,,,,,1,5,21,11,0,6,6,11,,,,,,,,,2,1.6363104230003955,117,001,2019_Sep_26_1411,MusicAffectPsychophysiology2019,3.0.5,60.2554244311804,
To what extent did the music make you feel ,HAPPY,30MonoWAV/30MonoS4.wav,1,1,3,12,,,,,1,5,21,11,0,7,7,6,,,,,,,,,1,0.8355071160003718,117,001,2019_Sep_26_1411,MusicAffectPsychophysiology2019,3.0.5,60.2554244311804,
To what extent did the music make you feel ,ALERT,30MonoWAV/30MonoS4.wav,1,1,3,12,,,,,1,5,21,11,0,8,8,8,,,,,,,,,3,1.2355697769999097,117,001,2019_Sep_26_1411,MusicAffectPsychophysiology2019,3.0.5,60.2554244311804,
To what extent did the music make you feel ,EXCITED,30MonoWAV/30MonoS4.wav,1,1,3,12,,,,,1,5,21,11,0,9,9,7,,,,,,,,,1,4.08588611399864,117,001,2019_Sep_26_1411,MusicAffectPsychophysiology2019,3.0.5,60.2554244311804,
To what extent did the music make you feel ,ACTIVE,30MonoWAV/30MonoS4.wav,1,1,3,12,,,,,1,5,21,11,0,10,10,9,,,,,,,,,1,0.9020352260013169,117,001,2019_Sep_26_1411,MusicAffectPsychophysiology2019,3.0.5,60.2554244311804,
To what extent did the music make you feel ,SAD,30MonoWAV/30MonoS4.wav,1,1,3,12,,,,,1,5,21,11,0,11,11,0,,,,,,,,,3,3.06879295500039,117,001,2019_Sep_26_1411,MusicAffectPsychophysiology2019,3.0.5,60.2554244311804,
,,30MonoWAV/30MonoS4.wav,1,1,3,12,,,,,1,5,21,11,,,,,,,,,,,,,,,117,001,2019_Sep_26_1411,MusicAffectPsychophysiology2019,3.0.5,60.2554244311804,
To what extent did the music make you feel ,EXCITED,30MonoWAV/30MonoS3.wav,1,1,3,11,,,,,1,6,22,10,0,0,0,7,,,1,1.969316106999031,1,0.7197516100004577,2,0.9369292150004185,1,1.6292542680002953,117,001,2019_Sep_26_1411,MusicAffectPsychophysiology2019,3.0.5,60.2554244311804,
To what extent did the music make you feel ,ANXIOUS ,30MonoWAV/30MonoS3.wav,1,1,3,11,,,,,1,6,22,10,0,1,1,1,,,,,,,,,4,1.1689985550001438,117,001,2019_Sep_26_1411,MusicAffectPsychophysiology2019,3.0.5,60.2554244311804,
To what extent did the music make you feel ,TENDER,30MonoWAV/30MonoS3.wav,1,1,3,11,,,,,1,6,22,10,0,2,2,10,,,,,,,,,1,0.9866188870000769,117,001,2019_Sep_26_1411,MusicAffectPsychophysiology2019,3.0.5,60.2554244311804,
To what extent did the music make you feel ,SAD,30MonoWAV/30MonoS3.wav,1,1,3,11,,,,,1,6,22,10,0,3,3,0,,,,,,,,,2,1.0032350159999623,117,001,2019_Sep_26_1411,MusicAffectPsychophysiology2019,3.0.5,60.2554244311804,
To what extent did the music make you feel ,ALERT,30MonoWAV/30MonoS3.wav,1,1,3,11,,,,,1,6,22,10,0,4,4,8,,,,,,,,,3,1.8360503250005422,117,001,2019_Sep_26_1411,MusicAffectPsychophysiology2019,3.0.5,60.2554244311804,
To what extent did the music make you feel ,SCARED,30MonoWAV/30MonoS3.wav,1,1,3,11,,,,,1,6,22,10,0,5,5,11,,,,,,,,,3,1.8356567830014683,117,001,2019_Sep_26_1411,MusicAffectPsychophysiology2019,3.0.5,60.2554244311804,
To what extent did the music make you feel ,ASHAMED,30MonoWAV/30MonoS3.wav,1,1,3,11,,,,,1,6,22,10,0,6,6,4,,,,,,,,,1,0.7360068260004482,117,001,2019_Sep_26_1411,MusicAffectPsychophysiology2019,3.0.5,60.2554244311804,
To what extent did the music make you feel ,ACTIVE,30MonoWAV/30MonoS3.wav,1,1,3,11,,,,,1,6,22,10,0,7,7,9,,,,,,,,,1,0.8016986460006592,117,001,2019_Sep_26_1411,MusicAffectPsychophysiology2019,3.0.5,60.2554244311804,
To what extent did the music make you feel ,FRUSTRATED,30MonoWAV/30MonoS3.wav,1,1,3,11,,,,,1,6,22,10,0,8,8,3,,,,,,,,,1,1.3365580630015756,117,001,2019_Sep_26_1411,MusicAffectPsychophysiology2019,3.0.5,60.2554244311804,
To what extent did the music make you feel ,GUILTY,30MonoWAV/30MonoS3.wav,1,1,3,11,,,,,1,6,22,10,0,9,9,5,,,,,,,,,2,0.6846891629993479,117,001,2019_Sep_26_1411,MusicAffectPsychophysiology2019,3.0.5,60.2554244311804,
To what extent did the music make you feel ,HAPPY,30MonoWAV/30MonoS3.wav,1,1,3,11,,,,,1,6,22,10,0,10,10,6,,,,,,,,,1,0.8018329229998926,117,001,2019_Sep_26_1411,MusicAffectPsychophysiology2019,3.0.5,60.2554244311804,
To what extent did the music make you feel ,ANGRY,30MonoWAV/30MonoS3.wav,1,1,3,11,,,,,1,6,22,10,0,11,11,2,,,,,,,,,1,1.0518153150005674,117,001,2019_Sep_26_1411,MusicAffectPsychophysiology2019,3.0.5,60.2554244311804,
,,30MonoWAV/30MonoS3.wav,1,1,3,11,,,,,1,6,22,10,,,,,,,,,,,,,,,117,001,2019_Sep_26_1411,MusicAffectPsychophysiology2019,3.0.5,60.2554244311804,
To what extent did the music make you feel ,ACTIVE,30MonoWAV/30MonoT4.wav,2,1,4,16,,,,,1,7,23,15,0,0,0,9,,,1,5.65191694799978,2,1.1339532640013203,4,2.936773502999131,1,1.2539744049990986,117,001,2019_Sep_26_1411,MusicAffectPsychophysiology2019,3.0.5,60.2554244311804,
To what extent did the music make you feel ,FRUSTRATED,30MonoWAV/30MonoT4.wav,2,1,4,16,,,,,1,7,23,15,0,1,1,3,,,,,,,,,1,0.7197464520013455,117,001,2019_Sep_26_1411,MusicAffectPsychophysiology2019,3.0.5,60.2554244311804,
To what extent did the music make you feel ,HAPPY,30MonoWAV/30MonoT4.wav,2,1,4,16,,,,,1,7,23,15,0,2,2,6,,,,,,,,,3,2.0175961229997483,117,001,2019_Sep_26_1411,MusicAffectPsychophysiology2019,3.0.5,60.2554244311804,
To what extent did the music make you feel ,ASHAMED,30MonoWAV/30MonoT4.wav,2,1,4,16,,,,,1,7,23,15,0,3,3,4,,,,,,,,,1,1.2852577279991237,117,001,2019_Sep_26_1411,MusicAffectPsychophysiology2019,3.0.5,60.2554244311804,
To what extent did the music make you feel ,EXCITED,30MonoWAV/30MonoT4.wav,2,1,4,16,,,,,1,7,23,15,0,4,4,7,,,,,,,,,2,1.833439363999787,117,001,2019_Sep_26_1411,MusicAffectPsychophysiology2019,3.0.5,60.2554244311804,
To what extent did the music make you feel ,SCARED,30MonoWAV/30MonoT4.wav,2,1,4,16,,,,,1,7,23,15,0,5,5,11,,,,,,,,,1,1.0347639009996783,117,001,2019_Sep_26_1411,MusicAffectPsychophysiology2019,3.0.5,60.2554244311804,
To what extent did the music make you feel ,SAD,30MonoWAV/30MonoT4.wav,2,1,4,16,,,,,1,7,23,15,0,6,6,0,,,,,,,,,3,1.703708105998885,117,001,2019_Sep_26_1411,MusicAffectPsychophysiology2019,3.0.5,60.2554244311804,
To what extent did the music make you feel ,ANXIOUS ,30MonoWAV/30MonoT4.wav,2,1,4,16,,,,,1,7,23,15,0,7,7,1,,,,,,,,,2,2.1340504310010147,117,001,2019_Sep_26_1411,MusicAffectPsychophysiology2019,3.0.5,60.2554244311804,
To what extent did the music make you feel ,ALERT,30MonoWAV/30MonoT4.wav,2,1,4,16,,,,,1,7,23,15,0,8,8,8,,,,,,,,,2,2.0371099349995347,117,001,2019_Sep_26_1411,MusicAffectPsychophysiology2019,3.0.5,60.2554244311804,
To what extent did the music make you feel ,TENDER,30MonoWAV/30MonoT4.wav,2,1,4,16,,,,,1,7,23,15,0,9,9,10,,,,,,,,,4,1.4519434180001554,117,001,2019_Sep_26_1411,MusicAffectPsychophysiology2019,3.0.5,60.2554244311804,
To what extent did the music make you feel ,ANGRY,30MonoWAV/30MonoT4.wav,2,1,4,16,,,,,1,7,23,15,0,10,10,2,,,,,,,,,1,2.335022087998368,117,001,2019_Sep_26_1411,MusicAffectPsychophysiology2019,3.0.5,60.2554244311804,
To what extent did the music make you feel ,GUILTY,30MonoWAV/30MonoT4.wav,2,1,4,16,,,,,1,7,23,15,0,11,11,5,,,,,,,,,1,0.5851680970008601,117,001,2019_Sep_26_1411,MusicAffectPsychophysiology2019,3.0.5,60.2554244311804,
,,30MonoWAV/30MonoT4.wav,2,1,4,16,,,,,1,7,23,15,,,,,,,,,,,,,,,117,001,2019_Sep_26_1411,MusicAffectPsychophysiology2019,3.0.5,60.2554244311804,
To what extent did the music make you feel ,ANXIOUS ,30MonoWAV/30MonoH3.wav,2,2,1,7,,,,,1,8,24,6,0,0,0,1,,,4,3.219538522998846,4,1.6370749969992175,3,1.3521826969990798,1,1.2479088549989683,117,001,2019_Sep_26_1411,MusicAffectPsychophysiology2019,3.0.5,60.2554244311804,
To what extent did the music make you feel ,ANGRY,30MonoWAV/30MonoH3.wav,2,2,1,7,,,,,1,8,24,6,0,1,1,2,,,,,,,,,1,0.7184550000001764,117,001,2019_Sep_26_1411,MusicAffectPsychophysiology2019,3.0.5,60.2554244311804,
To what extent did the music make you feel ,EXCITED,30MonoWAV/30MonoH3.wav,2,2,1,7,,,,,1,8,24,6,0,2,2,7,,,,,,,,,5,1.6517059139987396,117,001,2019_Sep_26_1411,MusicAffectPsychophysiology2019,3.0.5,60.2554244311804,
To what extent did the music make you feel ,FRUSTRATED,30MonoWAV/30MonoH3.wav,2,2,1,7,,,,,1,8,24,6,0,3,3,3,,,,,,,,,1,1.35170018899953,117,001,2019_Sep_26_1411,MusicAffectPsychophysiology2019,3.0.5,60.2554244311804,
To what extent did the music make you feel ,ACTIVE,30MonoWAV/30MonoH3.wav,2,2,1,7,,,,,1,8,24,6,0,4,4,9,,,,,,,,,2,1.3695918360008363,117,001,2019_Sep_26_1411,MusicAffectPsychophysiology2019,3.0.5,60.2554244311804,
To what extent did the music make you feel ,SCARED,30MonoWAV/30MonoH3.wav,2,2,1,7,,,,,1,8,24,6,0,5,5,11,,,,,,,,,1,2.03530017400044,117,001,2019_Sep_26_1411,MusicAffectPsychophysiology2019,3.0.5,60.2554244311804,
To what extent did the music make you feel ,ASHAMED,30MonoWAV/30MonoH3.wav,2,2,1,7,,,,,1,8,24,6,0,6,6,4,,,,,,,,,1,0.6861672150007507,117,001,2019_Sep_26_1411,MusicAffectPsychophysiology2019,3.0.5,60.2554244311804,
To what extent did the music make you feel ,ALERT,30MonoWAV/30MonoH3.wav,2,2,1,7,,,,,1,8,24,6,0,7,7,8,,,,,,,,,3,1.5868081690005056,117,001,2019_Sep_26_1411,MusicAffectPsychophysiology2019,3.0.5,60.2554244311804,
To what extent did the music make you feel ,GUILTY,30MonoWAV/30MonoH3.wav,2,2,1,7,,,,,1,8,24,6,0,8,8,5,,,,,,,,,1,1.034625538999535,117,001,2019_Sep_26_1411,MusicAffectPsychophysiology2019,3.0.5,60.2554244311804,
To what extent did the music make you feel ,HAPPY,30MonoWAV/30MonoH3.wav,2,2,1,7,,,,,1,8,24,6,0,9,9,6,,,,,,,,,4,1.0521711069995945,117,001,2019_Sep_26_1411,MusicAffectPsychophysiology2019,3.0.5,60.2554244311804,
To what extent did the music make you feel ,TENDER,30MonoWAV/30MonoH3.wav,2,2,1,7,,,,,1,8,24,6,0,10,10,10,,,,,,,,,3,1.919379167000443,117,001,2019_Sep_26_1411,MusicAffectPsychophysiology2019,3.0.5,60.2554244311804,
To what extent did the music make you feel ,SAD,30MonoWAV/30MonoH3.wav,2,2,1,7,,,,,1,8,24,6,0,11,11,0,,,,,,,,,1,0.9023825760014006,117,001,2019_Sep_26_1411,MusicAffectPsychophysiology2019,3.0.5,60.2554244311804,
,,30MonoWAV/30MonoH3.wav,2,2,1,7,,,,,1,8,24,6,,,,,,,,,,,,,,,117,001,2019_Sep_26_1411,MusicAffectPsychophysiology2019,3.0.5,60.2554244311804,
To what extent did the music make you feel ,ANXIOUS ,30MonoWAV/30MonoF1.wav,1,2,2,1,,,,,1,9,25,0,0,0,0,1,,,3,3.318606025999543,1,2.4024407800006884,1,1.902432356000645,3,2.488081912999405,117,001,2019_Sep_26_1411,MusicAffectPsychophysiology2019,3.0.5,60.2554244311804,
To what extent did the music make you feel ,ACTIVE,30MonoWAV/30MonoF1.wav,1,2,2,1,,,,,1,9,25,0,0,1,1,9,,,,,,,,,2,1.2334304460000567,117,001,2019_Sep_26_1411,MusicAffectPsychophysiology2019,3.0.5,60.2554244311804,
To what extent did the music make you feel ,GUILTY,30MonoWAV/30MonoF1.wav,1,2,2,1,,,,,1,9,25,0,0,2,2,5,,,,,,,,,1,1.0524014290003834,117,001,2019_Sep_26_1411,MusicAffectPsychophysiology2019,3.0.5,60.2554244311804,
To what extent did the music make you feel ,ALERT,30MonoWAV/30MonoF1.wav,1,2,2,1,,,,,1,9,25,0,0,3,3,8,,,,,,,,,3,1.05253961499875,117,001,2019_Sep_26_1411,MusicAffectPsychophysiology2019,3.0.5,60.2554244311804,
To what extent did the music make you feel ,TENDER,30MonoWAV/30MonoF1.wav,1,2,2,1,,,,,1,9,25,0,0,4,4,10,,,,,,,,,1,1.1192821969998477,117,001,2019_Sep_26_1411,MusicAffectPsychophysiology2019,3.0.5,60.2554244311804,
To what extent did the music make you feel ,HAPPY,30MonoWAV/30MonoF1.wav,1,2,2,1,,,,,1,9,25,0,0,5,5,6,,,,,,,,,1,1.335258833001717,117,001,2019_Sep_26_1411,MusicAffectPsychophysiology2019,3.0.5,60.2554244311804,
To what extent did the music make you feel ,ASHAMED,30MonoWAV/30MonoF1.wav,1,2,2,1,,,,,1,9,25,0,0,6,6,4,,,,,,,,,1,0.9734321390005789,117,001,2019_Sep_26_1411,MusicAffectPsychophysiology2019,3.0.5,60.2554244311804,
To what extent did the music make you feel ,FRUSTRATED,30MonoWAV/30MonoF1.wav,1,2,2,1,,,,,1,9,25,0,0,7,7,3,,,,,,,,,2,1.3191241330005141,117,001,2019_Sep_26_1411,MusicAffectPsychophysiology2019,3.0.5,60.2554244311804,
To what extent did the music make you feel ,EXCITED,30MonoWAV/30MonoF1.wav,1,2,2,1,,,,,1,9,25,0,0,8,8,7,,,,,,,,,1,0.9350308360008057,117,001,2019_Sep_26_1411,MusicAffectPsychophysiology2019,3.0.5,60.2554244311804,
To what extent did the music make you feel ,ANGRY,30MonoWAV/30MonoF1.wav,1,2,2,1,,,,,1,9,25,0,0,9,9,2,,,,,,,,,2,1.235797207998985,117,001,2019_Sep_26_1411,MusicAffectPsychophysiology2019,3.0.5,60.2554244311804,
To what extent did the music make you feel ,SAD,30MonoWAV/30MonoF1.wav,1,2,2,1,,,,,1,9,25,0,0,10,10,0,,,,,,,,,1,1.1530007910005224,117,001,2019_Sep_26_1411,MusicAffectPsychophysiology2019,3.0.5,60.2554244311804,
To what extent did the music make you feel ,SCARED,30MonoWAV/30MonoF1.wav,1,2,2,1,,,,,1,9,25,0,0,11,11,11,,,,,,,,,2,1.235966827998709,117,001,2019_Sep_26_1411,MusicAffectPsychophysiology2019,3.0.5,60.2554244311804,
,,30MonoWAV/30MonoF1.wav,1,2,2,1,,,,,1,9,25,0,,,,,,,,,,,,,,,117,001,2019_Sep_26_1411,MusicAffectPsychophysiology2019,3.0.5,60.2554244311804,
To what extent did the music make you feel ,ANGRY,30MonoWAV/30MonoT2.wav,2,1,4,14,,,,,1,10,26,13,0,0,0,2,,,2,2.9857683569989604,4,2.2017193760002556,3,0.9845375810000405,1,1.0987776590009162,117,001,2019_Sep_26_1411,MusicAffectPsychophysiology2019,3.0.5,60.2554244311804,
To what extent did the music make you feel ,ANXIOUS ,30MonoWAV/30MonoT2.wav,2,1,4,14,,,,,1,10,26,13,0,1,1,1,,,,,,,,,1,1.0688318680004159,117,001,2019_Sep_26_1411,MusicAffectPsychophysiology2019,3.0.5,60.2554244311804,
To what extent did the music make you feel ,SCARED,30MonoWAV/30MonoT2.wav,2,1,4,14,,,,,1,10,26,13,0,2,2,11,,,,,,,,,1,0.7338305079993006,117,001,2019_Sep_26_1411,MusicAffectPsychophysiology2019,3.0.5,60.2554244311804,
To what extent did the music make you feel ,HAPPY,30MonoWAV/30MonoT2.wav,2,1,4,14,,,,,1,10,26,13,0,3,3,6,,,,,,,,,3,1.0859052340001654,117,001,2019_Sep_26_1411,MusicAffectPsychophysiology2019,3.0.5,60.2554244311804,
To what extent did the music make you feel ,FRUSTRATED,30MonoWAV/30MonoT2.wav,2,1,4,14,,,,,1,10,26,13,0,4,4,3,,,,,,,,,1,0.8832126670004072,117,001,2019_Sep_26_1411,MusicAffectPsychophysiology2019,3.0.5,60.2554244311804,
To what extent did the music make you feel ,ACTIVE,30MonoWAV/30MonoT2.wav,2,1,4,14,,,,,1,10,26,13,0,5,5,9,,,,,,,,,1,1.0358686510007828,117,001,2019_Sep_26_1411,MusicAffectPsychophysiology2019,3.0.5,60.2554244311804,
To what extent did the music make you feel ,GUILTY,30MonoWAV/30MonoT2.wav,2,1,4,14,,,,,1,10,26,13,0,6,6,5,,,,,,,,,1,0.8527147389995662,117,001,2019_Sep_26_1411,MusicAffectPsychophysiology2019,3.0.5,60.2554244311804,
To what extent did the music make you feel ,ALERT,30MonoWAV/30MonoT2.wav,2,1,4,14,,,,,1,10,26,13,0,7,7,8,,,,,,,,,2,1.351641343000665,117,001,2019_Sep_26_1411,MusicAffectPsychophysiology2019,3.0.5,60.2554244311804,
To what extent did the music make you feel ,EXCITED,30MonoWAV/30MonoT2.wav,2,1,4,14,,,,,1,10,26,13,0,8,8,7,,,,,,,,,2,1.5851451310008997,117,001,2019_Sep_26_1411,MusicAffectPsychophysiology2019,3.0.5,60.2554244311804,
To what extent did the music make you feel ,SAD,30MonoWAV/30MonoT2.wav,2,1,4,14,,,,,1,10,26,13,0,9,9,0,,,,,,,,,1,1.9028953420001926,117,001,2019_Sep_26_1411,MusicAffectPsychophysiology2019,3.0.5,60.2554244311804,
To what extent did the music make you feel ,TENDER,30MonoWAV/30MonoT2.wav,2,1,4,14,,,,,1,10,26,13,0,10,10,10,,,,,,,,,3,1.3514850110004772,117,001,2019_Sep_26_1411,MusicAffectPsychophysiology2019,3.0.5,60.2554244311804,
To what extent did the music make you feel ,ASHAMED,30MonoWAV/30MonoT2.wav,2,1,4,14,,,,,1,10,26,13,0,11,11,4,,,,,,,,,1,0.5693483569993987,117,001,2019_Sep_26_1411,MusicAffectPsychophysiology2019,3.0.5,60.2554244311804,
,,30MonoWAV/30MonoT2.wav,2,1,4,14,,,,,1,10,26,13,,,,,,,,,,,,,,,117,001,2019_Sep_26_1411,MusicAffectPsychophysiology2019,3.0.5,60.2554244311804,
To what extent did the music make you feel ,ANGRY,30MonoWAV/30MonoT3.wav,2,1,4,15,,,,,1,11,27,14,0,0,0,2,,,1,3.401846363000004,3,1.5184680349993869,2,1.0515896289998636,1,4.110378863000733,117,001,2019_Sep_26_1411,MusicAffectPsychophysiology2019,3.0.5,60.2554244311804,
To what extent did the music make you feel ,ALERT,30MonoWAV/30MonoT3.wav,2,1,4,15,,,,,1,11,27,14,0,1,1,8,,,,,,,,,2,1.152437478000138,117,001,2019_Sep_26_1411,MusicAffectPsychophysiology2019,3.0.5,60.2554244311804,
To what extent did the music make you feel ,SAD,30MonoWAV/30MonoT3.wav,2,1,4,15,,,,,1,11,27,14,0,2,2,0,,,,,,,,,2,2.0348198390001926,117,001,2019_Sep_26_1411,MusicAffectPsychophysiology2019,3.0.5,60.2554244311804,
To what extent did the music make you feel ,HAPPY,30MonoWAV/30MonoT3.wav,2,1,4,15,,,,,1,11,27,14,0,3,3,6,,,,,,,,,3,1.8004252669998095,117,001,2019_Sep_26_1411,MusicAffectPsychophysiology2019,3.0.5,60.2554244311804,
To what extent did the music make you feel ,SCARED,30MonoWAV/30MonoT3.wav,2,1,4,15,,,,,1,11,27,14,0,4,4,11,,,,,,,,,1,0.8688080190004257,117,001,2019_Sep_26_1411,MusicAffectPsychophysiology2019,3.0.5,60.2554244311804,
To what extent did the music make you feel ,GUILTY,30MonoWAV/30MonoT3.wav,2,1,4,15,,,,,1,11,27,14,0,5,5,5,,,,,,,,,1,0.7685392500006856,117,001,2019_Sep_26_1411,MusicAffectPsychophysiology2019,3.0.5,60.2554244311804,
To what extent did the music make you feel ,FRUSTRATED,30MonoWAV/30MonoT3.wav,2,1,4,15,,,,,1,11,27,14,0,6,6,3,,,,,,,,,2,0.9021803479990922,117,001,2019_Sep_26_1411,MusicAffectPsychophysiology2019,3.0.5,60.2554244311804,
To what extent did the music make you feel ,TENDER,30MonoWAV/30MonoT3.wav,2,1,4,15,,,,,1,11,27,14,0,7,7,10,,,,,,,,,2,1.4851405179997528,117,001,2019_Sep_26_1411,MusicAffectPsychophysiology2019,3.0.5,60.2554244311804,
To what extent did the music make you feel ,ASHAMED,30MonoWAV/30MonoT3.wav,2,1,4,15,,,,,1,11,27,14,0,8,8,4,,,,,,,,,1,1.269484755999656,117,001,2019_Sep_26_1411,MusicAffectPsychophysiology2019,3.0.5,60.2554244311804,
To what extent did the music make you feel ,EXCITED,30MonoWAV/30MonoT3.wav,2,1,4,15,,,,,1,11,27,14,0,9,9,7,,,,,,,,,1,1.1698063250005362,117,001,2019_Sep_26_1411,MusicAffectPsychophysiology2019,3.0.5,60.2554244311804,
To what extent did the music make you feel ,ANXIOUS ,30MonoWAV/30MonoT3.wav,2,1,4,15,,,,,1,11,27,14,0,10,10,1,,,,,,,,,1,2.2834208629992645,117,001,2019_Sep_26_1411,MusicAffectPsychophysiology2019,3.0.5,60.2554244311804,
To what extent did the music make you feel ,ACTIVE,30MonoWAV/30MonoT3.wav,2,1,4,15,,,,,1,11,27,14,0,11,11,9,,,,,,,,,1,0.9191980800005695,117,001,2019_Sep_26_1411,MusicAffectPsychophysiology2019,3.0.5,60.2554244311804,
,,30MonoWAV/30MonoT3.wav,2,1,4,15,,,,,1,11,27,14,,,,,,,,,,,,,,,117,001,2019_Sep_26_1411,MusicAffectPsychophysiology2019,3.0.5,60.2554244311804,
To what extent did the music make you feel ,FRUSTRATED,30MonoWAV/30MonoH4.wav,2,2,1,8,,,,,1,12,28,7,0,0,0,3,,,4,3.884714071999042,4,1.7696937840009923,4,1.2368136050008616,1,1.3028544780008815,117,001,2019_Sep_26_1411,MusicAffectPsychophysiology2019,3.0.5,60.2554244311804,
To what extent did the music make you feel ,ASHAMED,30MonoWAV/30MonoH4.wav,2,2,1,8,,,,,1,12,28,7,0,1,1,4,,,,,,,,,1,0.6516049139991082,117,001,2019_Sep_26_1411,MusicAffectPsychophysiology2019,3.0.5,60.2554244311804,
To what extent did the music make you feel ,TENDER,30MonoWAV/30MonoH4.wav,2,2,1,8,,,,,1,12,28,7,0,2,2,10,,,,,,,,,2,0.9185217769991141,117,001,2019_Sep_26_1411,MusicAffectPsychophysiology2019,3.0.5,60.2554244311804,
To what extent did the music make you feel ,SCARED,30MonoWAV/30MonoH4.wav,2,2,1,8,,,,,1,12,28,7,0,3,3,11,,,,,,,,,1,1.2360979179993592,117,001,2019_Sep_26_1411,MusicAffectPsychophysiology2019,3.0.5,60.2554244311804,
To what extent did the music make you feel ,ALERT,30MonoWAV/30MonoH4.wav,2,2,1,8,,,,,1,12,28,7,0,4,4,8,,,,,,,,,3,1.3023637650003366,117,001,2019_Sep_26_1411,MusicAffectPsychophysiology2019,3.0.5,60.2554244311804,
To what extent did the music make you feel ,ANGRY,30MonoWAV/30MonoH4.wav,2,2,1,8,,,,,1,12,28,7,0,5,5,2,,,,,,,,,1,0.8864307450003253,117,001,2019_Sep_26_1411,MusicAffectPsychophysiology2019,3.0.5,60.2554244311804,
To what extent did the music make you feel ,GUILTY,30MonoWAV/30MonoH4.wav,2,2,1,8,,,,,1,12,28,7,0,6,6,5,,,,,,,,,1,0.9528163600007247,117,001,2019_Sep_26_1411,MusicAffectPsychophysiology2019,3.0.5,60.2554244311804,
To what extent did the music make you feel ,ACTIVE,30MonoWAV/30MonoH4.wav,2,2,1,8,,,,,1,12,28,7,0,7,7,9,,,,,,,,,4,1.0361403679999057,117,001,2019_Sep_26_1411,MusicAffectPsychophysiology2019,3.0.5,60.2554244311804,
To what extent did the music make you feel ,SAD,30MonoWAV/30MonoH4.wav,2,2,1,8,,,,,1,12,28,7,0,8,8,0,,,,,,,,,1,1.2190090780004539,117,001,2019_Sep_26_1411,MusicAffectPsychophysiology2019,3.0.5,60.2554244311804,
To what extent did the music make you feel ,HAPPY,30MonoWAV/30MonoH4.wav,2,2,1,8,,,,,1,12,28,7,0,9,9,6,,,,,,,,,4,1.7694562240012601,117,001,2019_Sep_26_1411,MusicAffectPsychophysiology2019,3.0.5,60.2554244311804,
To what extent did the music make you feel ,ANXIOUS ,30MonoWAV/30MonoH4.wav,2,2,1,8,,,,,1,12,28,7,0,10,10,1,,,,,,,,,2,1.4837377230014681,117,001,2019_Sep_26_1411,MusicAffectPsychophysiology2019,3.0.5,60.2554244311804,
To what extent did the music make you feel ,EXCITED,30MonoWAV/30MonoH4.wav,2,2,1,8,,,,,1,12,28,7,0,11,11,7,,,,,,,,,5,1.7030806729999313,117,001,2019_Sep_26_1411,MusicAffectPsychophysiology2019,3.0.5,60.2554244311804,
,,30MonoWAV/30MonoH4.wav,2,2,1,8,,,,,1,12,28,7,,,,,,,,,,,,,,,117,001,2019_Sep_26_1411,MusicAffectPsychophysiology2019,3.0.5,60.2554244311804,
To what extent did the music make you feel ,SCARED,30MonoWAV/30MonoF4.wav,1,2,2,4,,,,,1,13,29,3,0,0,0,11,,,2,3.6850510240001313,1,1.1854758169993147,3,1.6525070080006117,4,2.3619598660006886,117,001,2019_Sep_26_1411,MusicAffectPsychophysiology2019,3.0.5,60.2554244311804,
To what extent did the music make you feel ,ANGRY,30MonoWAV/30MonoF4.wav,1,2,2,4,,,,,1,13,29,3,0,1,1,2,,,,,,,,,1,1.1020274379989132,117,001,2019_Sep_26_1411,MusicAffectPsychophysiology2019,3.0.5,60.2554244311804,
To what extent did the music make you feel ,ACTIVE,30MonoWAV/30MonoF4.wav,1,2,2,4,,,,,1,13,29,3,0,2,2,9,,,,,,,,,2,2.1031879689999187,117,001,2019_Sep_26_1411,MusicAffectPsychophysiology2019,3.0.5,60.2554244311804,
To what extent did the music make you feel ,ANXIOUS ,30MonoWAV/30MonoF4.wav,1,2,2,4,,,,,1,13,29,3,0,3,3,1,,,,,,,,,3,1.2014860110011796,117,001,2019_Sep_26_1411,MusicAffectPsychophysiology2019,3.0.5,60.2554244311804,
To what extent did the music make you feel ,TENDER,30MonoWAV/30MonoF4.wav,1,2,2,4,,,,,1,13,29,3,0,4,4,10,,,,,,,,,1,1.2361446009999781,117,001,2019_Sep_26_1411,MusicAffectPsychophysiology2019,3.0.5,60.2554244311804,
To what extent did the music make you feel ,FRUSTRATED,30MonoWAV/30MonoF4.wav,1,2,2,4,,,,,1,13,29,3,0,5,5,3,,,,,,,,,2,1.268921811000837,117,001,2019_Sep_26_1411,MusicAffectPsychophysiology2019,3.0.5,60.2554244311804,
To what extent did the music make you feel ,EXCITED,30MonoWAV/30MonoF4.wav,1,2,2,4,,,,,1,13,29,3,0,6,6,7,,,,,,,,,2,1.9517131180000433,117,001,2019_Sep_26_1411,MusicAffectPsychophysiology2019,3.0.5,60.2554244311804,
To what extent did the music make you feel ,ALERT,30MonoWAV/30MonoF4.wav,1,2,2,4,,,,,1,13,29,3,0,7,7,8,,,,,,,,,4,1.6198966470001324,117,001,2019_Sep_26_1411,MusicAffectPsychophysiology2019,3.0.5,60.2554244311804,
To what extent did the music make you feel ,SAD,30MonoWAV/30MonoF4.wav,1,2,2,4,,,,,1,13,29,3,0,8,8,0,,,,,,,,,1,1.334863984000549,117,001,2019_Sep_26_1411,MusicAffectPsychophysiology2019,3.0.5,60.2554244311804,
To what extent did the music make you feel ,ASHAMED,30MonoWAV/30MonoF4.wav,1,2,2,4,,,,,1,13,29,3,0,9,9,4,,,,,,,,,1,0.8673254749992338,117,001,2019_Sep_26_1411,MusicAffectPsychophysiology2019,3.0.5,60.2554244311804,
To what extent did the music make you feel ,HAPPY,30MonoWAV/30MonoF4.wav,1,2,2,4,,,,,1,13,29,3,0,10,10,6,,,,,,,,,1,0.8352170649995969,117,001,2019_Sep_26_1411,MusicAffectPsychophysiology2019,3.0.5,60.2554244311804,
To what extent did the music make you feel ,GUILTY,30MonoWAV/30MonoF4.wav,1,2,2,4,,,,,1,13,29,3,0,11,11,5,,,,,,,,,1,0.7862488049995591,117,001,2019_Sep_26_1411,MusicAffectPsychophysiology2019,3.0.5,60.2554244311804,
,,30MonoWAV/30MonoF4.wav,1,2,2,4,,,,,1,13,29,3,,,,,,,,,,,,,,,117,001,2019_Sep_26_1411,MusicAffectPsychophysiology2019,3.0.5,60.2554244311804,
To what extent did the music make you feel ,ANGRY,30MonoWAV/30MonoT1.wav,2,1,4,13,,,,,1,14,30,12,0,0,0,2,,,1,3.0339062469993223,3,1.401112555000509,3,1.5998093510006584,1,1.3035109299999021,117,001,2019_Sep_26_1411,MusicAffectPsychophysiology2019,3.0.5,60.2554244311804,
To what extent did the music make you feel ,SCARED,30MonoWAV/30MonoT1.wav,2,1,4,13,,,,,1,14,30,12,0,1,1,11,,,,,,,,,1,1.4348777520008298,117,001,2019_Sep_26_1411,MusicAffectPsychophysiology2019,3.0.5,60.2554244311804,
To what extent did the music make you feel ,EXCITED,30MonoWAV/30MonoT1.wav,2,1,4,13,,,,,1,14,30,12,0,2,2,7,,,,,,,,,2,1.0686569009994855,117,001,2019_Sep_26_1411,MusicAffectPsychophysiology2019,3.0.5,60.2554244311804,
To what extent did the music make you feel ,ANXIOUS ,30MonoWAV/30MonoT1.wav,2,1,4,13,,,,,1,14,30,12,0,3,3,1,,,,,,,,,2,1.335384615998919,117,001,2019_Sep_26_1411,MusicAffectPsychophysiology2019,3.0.5,60.2554244311804,
To what extent did the music make you feel ,SAD,30MonoWAV/30MonoT1.wav,2,1,4,13,,,,,1,14,30,12,0,4,4,0,,,,,,,,,2,1.718621935999181,117,001,2019_Sep_26_1411,MusicAffectPsychophysiology2019,3.0.5,60.2554244311804,
To what extent did the music make you feel ,ASHAMED,30MonoWAV/30MonoT1.wav,2,1,4,13,,,,,1,14,30,12,0,5,5,4,,,,,,,,,1,1.3181597490001877,117,001,2019_Sep_26_1411,MusicAffectPsychophysiology2019,3.0.5,60.2554244311804,
To what extent did the music make you feel ,GUILTY,30MonoWAV/30MonoT1.wav,2,1,4,13,,,,,1,14,30,12,0,6,6,5,,,,,,,,,1,1.3523475149995647,117,001,2019_Sep_26_1411,MusicAffectPsychophysiology2019,3.0.5,60.2554244311804,
To what extent did the music make you feel ,TENDER,30MonoWAV/30MonoT1.wav,2,1,4,13,,,,,1,14,30,12,0,7,7,10,,,,,,,,,3,2.9836237489998894,117,001,2019_Sep_26_1411,MusicAffectPsychophysiology2019,3.0.5,60.2554244311804,
To what extent did the music make you feel ,ACTIVE,30MonoWAV/30MonoT1.wav,2,1,4,13,,,,,1,14,30,12,0,8,8,9,,,,,,,,,1,1.8193362789988896,117,001,2019_Sep_26_1411,MusicAffectPsychophysiology2019,3.0.5,60.2554244311804,
To what extent did the music make you feel ,FRUSTRATED,30MonoWAV/30MonoT1.wav,2,1,4,13,,,,,1,14,30,12,0,9,9,3,,,,,,,,,1,1.4192781719993945,117,001,2019_Sep_26_1411,MusicAffectPsychophysiology2019,3.0.5,60.2554244311804,
To what extent did the music make you feel ,ALERT,30MonoWAV/30MonoT1.wav,2,1,4,13,,,,,1,14,30,12,0,10,10,8,,,,,,,,,2,0.8859366100004991,117,001,2019_Sep_26_1411,MusicAffectPsychophysiology2019,3.0.5,60.2554244311804,
To what extent did the music make you feel ,HAPPY,30MonoWAV/30MonoT1.wav,2,1,4,13,,,,,1,14,30,12,0,11,11,6,,,,,,,,,3,1.3686847560002207,117,001,2019_Sep_26_1411,MusicAffectPsychophysiology2019,3.0.5,60.2554244311804,
,,30MonoWAV/30MonoT1.wav,2,1,4,13,,,,,1,14,30,12,,,,,,,,,,,,,,,117,001,2019_Sep_26_1411,MusicAffectPsychophysiology2019,3.0.5,60.2554244311804,
To what extent did the music make you feel ,GUILTY,30MonoWAV/30MonoF3.wav,1,2,2,3,,,,,1,15,31,2,0,0,0,5,,,3,4.252278763999129,2,3.869407341999249,5,2.2355405849993986,2,2.3820065850013634,117,001,2019_Sep_26_1411,MusicAffectPsychophysiology2019,3.0.5,60.2554244311804,
To what extent did the music make you feel ,ASHAMED,30MonoWAV/30MonoF3.wav,1,2,2,3,,,,,1,15,31,2,0,1,1,4,,,,,,,,,1,0.9683483099997829,117,001,2019_Sep_26_1411,MusicAffectPsychophysiology2019,3.0.5,60.2554244311804,
To what extent did the music make you feel ,ANGRY,30MonoWAV/30MonoF3.wav,1,2,2,3,,,,,1,15,31,2,0,2,2,2,,,,,,,,,2,4.93564898799923,117,001,2019_Sep_26_1411,MusicAffectPsychophysiology2019,3.0.5,60.2554244311804,
To what extent did the music make you feel ,ACTIVE,30MonoWAV/30MonoF3.wav,1,2,2,3,,,,,1,15,31,2,0,3,3,9,,,,,,,,,3,1.9516346790005628,117,001,2019_Sep_26_1411,MusicAffectPsychophysiology2019,3.0.5,60.2554244311804,
To what extent did the music make you feel ,EXCITED,30MonoWAV/30MonoF3.wav,1,2,2,3,,,,,1,15,31,2,0,4,4,7,,,,,,,,,2,1.252311980999366,117,001,2019_Sep_26_1411,MusicAffectPsychophysiology2019,3.0.5,60.2554244311804,
To what extent did the music make you feel ,HAPPY,30MonoWAV/30MonoF3.wav,1,2,2,3,,,,,1,15,31,2,0,5,5,6,,,,,,,,,1,0.9832853589996375,117,001,2019_Sep_26_1411,MusicAffectPsychophysiology2019,3.0.5,60.2554244311804,
To what extent did the music make you feel ,SAD,30MonoWAV/30MonoF3.wav,1,2,2,3,,,,,1,15,31,2,0,6,6,0,,,,,,,,,1,1.83307595199949,117,001,2019_Sep_26_1411,MusicAffectPsychophysiology2019,3.0.5,60.2554244311804,
To what extent did the music make you feel ,FRUSTRATED,30MonoWAV/30MonoF3.wav,1,2,2,3,,,,,1,15,31,2,0,7,7,3,,,,,,,,,1,0.8694732900003146,117,001,2019_Sep_26_1411,MusicAffectPsychophysiology2019,3.0.5,60.2554244311804,
To what extent did the music make you feel ,TENDER,30MonoWAV/30MonoF3.wav,1,2,2,3,,,,,1,15,31,2,0,8,8,10,,,,,,,,,1,0.8371825049998733,117,001,2019_Sep_26_1411,MusicAffectPsychophysiology2019,3.0.5,60.2554244311804,
To what extent did the music make you feel ,SCARED,30MonoWAV/30MonoF3.wav,1,2,2,3,,,,,1,15,31,2,0,9,9,11,,,,,,,,,4,1.9031353450009192,117,001,2019_Sep_26_1411,MusicAffectPsychophysiology2019,3.0.5,60.2554244311804,
To what extent did the music make you feel ,ANXIOUS ,30MonoWAV/30MonoF3.wav,1,2,2,3,,,,,1,15,31,2,0,10,10,1,,,,,,,,,4,1.3851506510000036,117,001,2019_Sep_26_1411,MusicAffectPsychophysiology2019,3.0.5,60.2554244311804,
To what extent did the music make you feel ,ALERT,30MonoWAV/30MonoF3.wav,1,2,2,3,,,,,1,15,31,2,0,11,11,8,,,,,,,,,4,1.3853460110003653,117,001,2019_Sep_26_1411,MusicAffectPsychophysiology2019,3.0.5,60.2554244311804,
,,30MonoWAV/30MonoF3.wav,1,2,2,3,,,,,1,15,31,2,,,,,,,,,,,,,,,117,001,2019_Sep_26_1411,MusicAffectPsychophysiology2019,3.0.5,60.2554244311804,
