Instruction,Word,song,valence,arousal,affectcat,songmark,pracwords.thisRepN,pracwords.thisTrialN,pracwords.thisN,pracwords.thisIndex,songtrials.thisRepN,songtrials.thisTrialN,songtrials.thisN,songtrials.thisIndex,words.thisRepN,words.thisTrialN,words.thisN,words.thisIndex,begin.keys,begin.rt,arousalkey.keys,arousalkey.rt,valencekey.keys,valencekey.rt,likekey.keys,likekey.rt,WordResponse.keys,WordResponse.rt,key_resp_2.keys,key_resp_2.rt,participant,session,date,expName,psychopyVersion,frameRate,
,,,,,,,,,,,,,,,,,,,space,448.1418303520004,,,,,,,,,,,118,001,2019_Sep_26_1458,MusicAffectPsychophysiology2019,3.0.5,60.248303622882815,
,,,,,,,,,,,,,,,,,,,,,3,12.14976088000003,,,,,,,,,118,001,2019_Sep_26_1458,MusicAffectPsychophysiology2019,3.0.5,60.248303622882815,
,,,,,,,,,,,,,,,,,,,,,,,3,7.034670578999794,,,,,,,118,001,2019_Sep_26_1458,MusicAffectPsychophysiology2019,3.0.5,60.248303622882815,
,,,,,,,,,,,,,,,,,,,,,,,,,3,5.034645784000531,,,,,118,001,2019_Sep_26_1458,MusicAffectPsychophysiology2019,3.0.5,60.248303622882815,
To what extent did the music make you feel ,ASHAMED,,,,,,0,0,0,4,,,,,,,,,,,,,,,,,1,10.069914665999022,,,118,001,2019_Sep_26_1458,MusicAffectPsychophysiology2019,3.0.5,60.248303622882815,
To what extent did the music make you feel ,ACTIVE,,,,,,0,1,1,9,,,,,,,,,,,,,,,,,2,2.5180025400004524,,,118,001,2019_Sep_26_1458,MusicAffectPsychophysiology2019,3.0.5,60.248303622882815,
To what extent did the music make you feel ,HAPPY,,,,,,0,2,2,6,,,,,,,,,,,,,,,,,4,3.0335693990000436,,,118,001,2019_Sep_26_1458,MusicAffectPsychophysiology2019,3.0.5,60.248303622882815,
To what extent did the music make you feel ,EXCITED,,,,,,0,3,3,7,,,,,,,,,,,,,,,,,4,2.568597691000832,,,118,001,2019_Sep_26_1458,MusicAffectPsychophysiology2019,3.0.5,60.248303622882815,
To what extent did the music make you feel ,ANXIOUS ,,,,,,0,4,4,1,,,,,,,,,,,,,,,,,1,2.5357005409987323,,,118,001,2019_Sep_26_1458,MusicAffectPsychophysiology2019,3.0.5,60.248303622882815,
To what extent did the music make you feel ,SCARED,,,,,,0,5,5,11,,,,,,,,,,,,,,,,,1,1.570686154998839,,,118,001,2019_Sep_26_1458,MusicAffectPsychophysiology2019,3.0.5,60.248303622882815,
To what extent did the music make you feel ,GUILTY,,,,,,0,6,6,5,,,,,,,,,,,,,,,,,1,6.0525876820011035,,,118,001,2019_Sep_26_1458,MusicAffectPsychophysiology2019,3.0.5,60.248303622882815,
To what extent did the music make you feel ,FRUSTRATED,,,,,,0,7,7,3,,,,,,,,,,,,,,,,,1,1.3365404140004102,,,118,001,2019_Sep_26_1458,MusicAffectPsychophysiology2019,3.0.5,60.248303622882815,
To what extent did the music make you feel ,ALERT,,,,,,0,8,8,8,,,,,,,,,,,,,,,,,2,2.135895089000769,,,118,001,2019_Sep_26_1458,MusicAffectPsychophysiology2019,3.0.5,60.248303622882815,
To what extent did the music make you feel ,SAD,,,,,,0,9,9,0,,,,,,,,,,,,,,,,,1,1.935876592000568,,,118,001,2019_Sep_26_1458,MusicAffectPsychophysiology2019,3.0.5,60.248303622882815,
To what extent did the music make you feel ,TENDER,,,,,,0,10,10,10,,,,,,,,,,,,,,,,,2,4.166441187000601,,,118,001,2019_Sep_26_1458,MusicAffectPsychophysiology2019,3.0.5,60.248303622882815,
To what extent did the music make you feel ,ANGRY,,,,,,0,11,11,2,,,,,,,,,,,,,,,,,1,1.4520975630002795,,,118,001,2019_Sep_26_1458,MusicAffectPsychophysiology2019,3.0.5,60.248303622882815,
To what extent did the music make you feel ,ACTIVE,30MonoWAV/30MonoS3.wav,1,1,3,11,,,,,0,0,0,10,0,0,0,9,,,2,5.253266714000347,2,5.485718006999377,2,4.118065348000528,2,4.958422772000631,,,118,001,2019_Sep_26_1458,MusicAffectPsychophysiology2019,3.0.5,60.248303622882815,
To what extent did the music make you feel ,SCARED,30MonoWAV/30MonoS3.wav,1,1,3,11,,,,,0,0,0,10,0,1,1,11,,,,,,,,,2,4.7848889580000105,,,118,001,2019_Sep_26_1458,MusicAffectPsychophysiology2019,3.0.5,60.248303622882815,
To what extent did the music make you feel ,ANGRY,30MonoWAV/30MonoS3.wav,1,1,3,11,,,,,0,0,0,10,0,2,2,2,,,,,,,,,1,2.13554453299912,,,118,001,2019_Sep_26_1458,MusicAffectPsychophysiology2019,3.0.5,60.248303622882815,
To what extent did the music make you feel ,EXCITED,30MonoWAV/30MonoS3.wav,1,1,3,11,,,,,0,0,0,10,0,3,3,7,,,,,,,,,3,4.002818184999342,,,118,001,2019_Sep_26_1458,MusicAffectPsychophysiology2019,3.0.5,60.248303622882815,
To what extent did the music make you feel ,ANXIOUS ,30MonoWAV/30MonoS3.wav,1,1,3,11,,,,,0,0,0,10,0,4,4,1,,,,,,,,,3,4.299652907999189,,,118,001,2019_Sep_26_1458,MusicAffectPsychophysiology2019,3.0.5,60.248303622882815,
To what extent did the music make you feel ,SAD,30MonoWAV/30MonoS3.wav,1,1,3,11,,,,,0,0,0,10,0,5,5,0,,,,,,,,,2,2.318778986000325,,,118,001,2019_Sep_26_1458,MusicAffectPsychophysiology2019,3.0.5,60.248303622882815,
To what extent did the music make you feel ,TENDER,30MonoWAV/30MonoS3.wav,1,1,3,11,,,,,0,0,0,10,0,6,6,10,,,,,,,,,1,2.3018975780014443,,,118,001,2019_Sep_26_1458,MusicAffectPsychophysiology2019,3.0.5,60.248303622882815,
To what extent did the music make you feel ,FRUSTRATED,30MonoWAV/30MonoS3.wav,1,1,3,11,,,,,0,0,0,10,0,7,7,3,,,,,,,,,1,5.400848224000583,,,118,001,2019_Sep_26_1458,MusicAffectPsychophysiology2019,3.0.5,60.248303622882815,
To what extent did the music make you feel ,GUILTY,30MonoWAV/30MonoS3.wav,1,1,3,11,,,,,0,0,0,10,0,8,8,5,,,,,,,,,2,1.4354472869999881,,,118,001,2019_Sep_26_1458,MusicAffectPsychophysiology2019,3.0.5,60.248303622882815,
To what extent did the music make you feel ,ASHAMED,30MonoWAV/30MonoS3.wav,1,1,3,11,,,,,0,0,0,10,0,9,9,4,,,,,,,,,2,2.285982409999633,,,118,001,2019_Sep_26_1458,MusicAffectPsychophysiology2019,3.0.5,60.248303622882815,
To what extent did the music make you feel ,HAPPY,30MonoWAV/30MonoS3.wav,1,1,3,11,,,,,0,0,0,10,0,10,10,6,,,,,,,,,1,4.052002733000336,,,118,001,2019_Sep_26_1458,MusicAffectPsychophysiology2019,3.0.5,60.248303622882815,
To what extent did the music make you feel ,ALERT,30MonoWAV/30MonoS3.wav,1,1,3,11,,,,,0,0,0,10,0,11,11,8,,,,,,,,,3,4.552644687999418,,,118,001,2019_Sep_26_1458,MusicAffectPsychophysiology2019,3.0.5,60.248303622882815,
,,30MonoWAV/30MonoS3.wav,1,1,3,11,,,,,0,0,0,10,,,,,,,,,,,,,,,,,118,001,2019_Sep_26_1458,MusicAffectPsychophysiology2019,3.0.5,60.248303622882815,
To what extent did the music make you feel ,ANGRY,30MonoWAV/30MonoH1.wav,2,2,1,5,,,,,0,1,1,4,0,0,0,2,,,3,5.302533079999193,2,6.468068071999369,3,3.299962463999691,1,5.1353751119986555,,,118,001,2019_Sep_26_1458,MusicAffectPsychophysiology2019,3.0.5,60.248303622882815,
To what extent did the music make you feel ,SCARED,30MonoWAV/30MonoH1.wav,2,2,1,5,,,,,0,1,1,4,0,1,1,11,,,,,,,,,2,2.249938478000331,,,118,001,2019_Sep_26_1458,MusicAffectPsychophysiology2019,3.0.5,60.248303622882815,
To what extent did the music make you feel ,ACTIVE,30MonoWAV/30MonoH1.wav,2,2,1,5,,,,,0,1,1,4,0,2,2,9,,,,,,,,,3,2.000534303999302,,,118,001,2019_Sep_26_1458,MusicAffectPsychophysiology2019,3.0.5,60.248303622882815,
To what extent did the music make you feel ,HAPPY,30MonoWAV/30MonoH1.wav,2,2,1,5,,,,,0,1,1,4,0,3,3,6,,,,,,,,,4,2.968263503998969,,,118,001,2019_Sep_26_1458,MusicAffectPsychophysiology2019,3.0.5,60.248303622882815,
To what extent did the music make you feel ,ALERT,30MonoWAV/30MonoH1.wav,2,2,1,5,,,,,0,1,1,4,0,4,4,8,,,,,,,,,4,3.3688711859995237,,,118,001,2019_Sep_26_1458,MusicAffectPsychophysiology2019,3.0.5,60.248303622882815,
To what extent did the music make you feel ,ANXIOUS ,30MonoWAV/30MonoH1.wav,2,2,1,5,,,,,0,1,1,4,0,5,5,1,,,,,,,,,2,2.219205495001006,,,118,001,2019_Sep_26_1458,MusicAffectPsychophysiology2019,3.0.5,60.248303622882815,
To what extent did the music make you feel ,TENDER,30MonoWAV/30MonoH1.wav,2,2,1,5,,,,,0,1,1,4,0,6,6,10,,,,,,,,,2,2.616965691999212,,,118,001,2019_Sep_26_1458,MusicAffectPsychophysiology2019,3.0.5,60.248303622882815,
To what extent did the music make you feel ,SAD,30MonoWAV/30MonoH1.wav,2,2,1,5,,,,,0,1,1,4,0,7,7,0,,,,,,,,,1,1.635362230001192,,,118,001,2019_Sep_26_1458,MusicAffectPsychophysiology2019,3.0.5,60.248303622882815,
To what extent did the music make you feel ,GUILTY,30MonoWAV/30MonoH1.wav,2,2,1,5,,,,,0,1,1,4,0,8,8,5,,,,,,,,,1,1.7191172530001495,,,118,001,2019_Sep_26_1458,MusicAffectPsychophysiology2019,3.0.5,60.248303622882815,
To what extent did the music make you feel ,EXCITED,30MonoWAV/30MonoH1.wav,2,2,1,5,,,,,0,1,1,4,0,9,9,7,,,,,,,,,4,3.185582157000681,,,118,001,2019_Sep_26_1458,MusicAffectPsychophysiology2019,3.0.5,60.248303622882815,
To what extent did the music make you feel ,FRUSTRATED,30MonoWAV/30MonoH1.wav,2,2,1,5,,,,,0,1,1,4,0,10,10,3,,,,,,,,,1,2.119997415000398,,,118,001,2019_Sep_26_1458,MusicAffectPsychophysiology2019,3.0.5,60.248303622882815,
To what extent did the music make you feel ,ASHAMED,30MonoWAV/30MonoH1.wav,2,2,1,5,,,,,0,1,1,4,0,11,11,4,,,,,,,,,1,1.6178113509995455,,,118,001,2019_Sep_26_1458,MusicAffectPsychophysiology2019,3.0.5,60.248303622882815,
,,30MonoWAV/30MonoH1.wav,2,2,1,5,,,,,0,1,1,4,,,,,,,,,,,,,,,,,118,001,2019_Sep_26_1458,MusicAffectPsychophysiology2019,3.0.5,60.248303622882815,
To what extent did the music make you feel ,ANGRY,30MonoWAV/30MonoF4.wav,1,2,2,4,,,,,0,2,2,3,0,0,0,2,,,3,7.61624730100084,2,6.651917703999061,2,3.886036902000342,2,2.4908110329997726,,,118,001,2019_Sep_26_1458,MusicAffectPsychophysiology2019,3.0.5,60.248303622882815,
To what extent did the music make you feel ,ASHAMED,30MonoWAV/30MonoF4.wav,1,2,2,4,,,,,0,2,2,3,0,1,1,4,,,,,,,,,3,2.4860845870007324,,,118,001,2019_Sep_26_1458,MusicAffectPsychophysiology2019,3.0.5,60.248303622882815,
To what extent did the music make you feel ,ANXIOUS ,30MonoWAV/30MonoF4.wav,1,2,2,4,,,,,0,2,2,3,0,2,2,1,,,,,,,,,3,2.6022144149992528,,,118,001,2019_Sep_26_1458,MusicAffectPsychophysiology2019,3.0.5,60.248303622882815,
To what extent did the music make you feel ,ACTIVE,30MonoWAV/30MonoF4.wav,1,2,2,4,,,,,0,2,2,3,0,3,3,9,,,,,,,,,3,1.8175795160004782,,,118,001,2019_Sep_26_1458,MusicAffectPsychophysiology2019,3.0.5,60.248303622882815,
To what extent did the music make you feel ,TENDER,30MonoWAV/30MonoF4.wav,1,2,2,4,,,,,0,2,2,3,0,4,4,10,,,,,,,,,2,1.535708308001631,,,118,001,2019_Sep_26_1458,MusicAffectPsychophysiology2019,3.0.5,60.248303622882815,
To what extent did the music make you feel ,GUILTY,30MonoWAV/30MonoF4.wav,1,2,2,4,,,,,0,2,2,3,0,5,5,5,,,,,,,,,4,2.867426834000071,,,118,001,2019_Sep_26_1458,MusicAffectPsychophysiology2019,3.0.5,60.248303622882815,
To what extent did the music make you feel ,SCARED,30MonoWAV/30MonoF4.wav,1,2,2,4,,,,,0,2,2,3,0,6,6,11,,,,,,,,,3,1.336001061999923,,,118,001,2019_Sep_26_1458,MusicAffectPsychophysiology2019,3.0.5,60.248303622882815,
To what extent did the music make you feel ,EXCITED,30MonoWAV/30MonoF4.wav,1,2,2,4,,,,,0,2,2,3,0,7,7,7,,,,,,,,,2,2.2352593720006553,,,118,001,2019_Sep_26_1458,MusicAffectPsychophysiology2019,3.0.5,60.248303622882815,
To what extent did the music make you feel ,FRUSTRATED,30MonoWAV/30MonoF4.wav,1,2,2,4,,,,,0,2,2,3,0,8,8,3,,,,,,,,,1,1.6698442630004138,,,118,001,2019_Sep_26_1458,MusicAffectPsychophysiology2019,3.0.5,60.248303622882815,
To what extent did the music make you feel ,HAPPY,30MonoWAV/30MonoF4.wav,1,2,2,4,,,,,0,2,2,3,0,9,9,6,,,,,,,,,2,2.5022632159998466,,,118,001,2019_Sep_26_1458,MusicAffectPsychophysiology2019,3.0.5,60.248303622882815,
To what extent did the music make you feel ,SAD,30MonoWAV/30MonoF4.wav,1,2,2,4,,,,,0,2,2,3,0,10,10,0,,,,,,,,,2,3.2192547030008427,,,118,001,2019_Sep_26_1458,MusicAffectPsychophysiology2019,3.0.5,60.248303622882815,
To what extent did the music make you feel ,ALERT,30MonoWAV/30MonoF4.wav,1,2,2,4,,,,,0,2,2,3,0,11,11,8,,,,,,,,,4,1.71859043600125,,,118,001,2019_Sep_26_1458,MusicAffectPsychophysiology2019,3.0.5,60.248303622882815,
,,30MonoWAV/30MonoF4.wav,1,2,2,4,,,,,0,2,2,3,,,,,,,,,,,,,,,,,118,001,2019_Sep_26_1458,MusicAffectPsychophysiology2019,3.0.5,60.248303622882815,
To what extent did the music make you feel ,HAPPY,30MonoWAV/30MonoT1.wav,2,1,4,13,,,,,0,3,3,12,0,0,0,6,,,3,4.2527340649994585,4,2.9845028199997614,4,4.001979791000849,4,5.199151578000965,,,118,001,2019_Sep_26_1458,MusicAffectPsychophysiology2019,3.0.5,60.248303622882815,
To what extent did the music make you feel ,ANGRY,30MonoWAV/30MonoT1.wav,2,1,4,13,,,,,0,3,3,12,0,1,1,2,,,,,,,,,1,1.7360202899999422,,,118,001,2019_Sep_26_1458,MusicAffectPsychophysiology2019,3.0.5,60.248303622882815,
To what extent did the music make you feel ,ANXIOUS ,30MonoWAV/30MonoT1.wav,2,1,4,13,,,,,0,3,3,12,0,2,2,1,,,,,,,,,1,1.2021932279985776,,,118,001,2019_Sep_26_1458,MusicAffectPsychophysiology2019,3.0.5,60.248303622882815,
To what extent did the music make you feel ,GUILTY,30MonoWAV/30MonoT1.wav,2,1,4,13,,,,,0,3,3,12,0,3,3,5,,,,,,,,,1,1.0355150540017348,,,118,001,2019_Sep_26_1458,MusicAffectPsychophysiology2019,3.0.5,60.248303622882815,
To what extent did the music make you feel ,ACTIVE,30MonoWAV/30MonoT1.wav,2,1,4,13,,,,,0,3,3,12,0,4,4,9,,,,,,,,,2,2.603130452000187,,,118,001,2019_Sep_26_1458,MusicAffectPsychophysiology2019,3.0.5,60.248303622882815,
To what extent did the music make you feel ,EXCITED,30MonoWAV/30MonoT1.wav,2,1,4,13,,,,,0,3,3,12,0,5,5,7,,,,,,,,,4,1.5856080939993262,,,118,001,2019_Sep_26_1458,MusicAffectPsychophysiology2019,3.0.5,60.248303622882815,
To what extent did the music make you feel ,ALERT,30MonoWAV/30MonoT1.wav,2,1,4,13,,,,,0,3,3,12,0,6,6,8,,,,,,,,,1,1.2851211439992767,,,118,001,2019_Sep_26_1458,MusicAffectPsychophysiology2019,3.0.5,60.248303622882815,
To what extent did the music make you feel ,SAD,30MonoWAV/30MonoT1.wav,2,1,4,13,,,,,0,3,3,12,0,7,7,0,,,,,,,,,1,3.1025891190001857,,,118,001,2019_Sep_26_1458,MusicAffectPsychophysiology2019,3.0.5,60.248303622882815,
To what extent did the music make you feel ,ASHAMED,30MonoWAV/30MonoT1.wav,2,1,4,13,,,,,0,3,3,12,0,8,8,4,,,,,,,,,1,1.5018970830005856,,,118,001,2019_Sep_26_1458,MusicAffectPsychophysiology2019,3.0.5,60.248303622882815,
To what extent did the music make you feel ,TENDER,30MonoWAV/30MonoT1.wav,2,1,4,13,,,,,0,3,3,12,0,9,9,10,,,,,,,,,1,1.1528493040004832,,,118,001,2019_Sep_26_1458,MusicAffectPsychophysiology2019,3.0.5,60.248303622882815,
To what extent did the music make you feel ,FRUSTRATED,30MonoWAV/30MonoT1.wav,2,1,4,13,,,,,0,3,3,12,0,10,10,3,,,,,,,,,1,0.9373559409996233,,,118,001,2019_Sep_26_1458,MusicAffectPsychophysiology2019,3.0.5,60.248303622882815,
To what extent did the music make you feel ,SCARED,30MonoWAV/30MonoT1.wav,2,1,4,13,,,,,0,3,3,12,0,11,11,11,,,,,,,,,1,2.1531868189995294,,,118,001,2019_Sep_26_1458,MusicAffectPsychophysiology2019,3.0.5,60.248303622882815,
,,30MonoWAV/30MonoT1.wav,2,1,4,13,,,,,0,3,3,12,,,,,,,,,,,,,,,,,118,001,2019_Sep_26_1458,MusicAffectPsychophysiology2019,3.0.5,60.248303622882815,
To what extent did the music make you feel ,ANGRY,30MonoWAV/30MonoS1.wav,1,1,3,9,,,,,0,4,4,8,0,0,0,2,,,2,3.919564621999598,3,2.735930136999741,3,1.802553004999936,1,2.6392304279997916,,,118,001,2019_Sep_26_1458,MusicAffectPsychophysiology2019,3.0.5,60.248303622882815,
To what extent did the music make you feel ,ALERT,30MonoWAV/30MonoS1.wav,1,1,3,9,,,,,0,4,4,8,0,1,1,8,,,,,,,,,3,1.6852681130003475,,,118,001,2019_Sep_26_1458,MusicAffectPsychophysiology2019,3.0.5,60.248303622882815,
To what extent did the music make you feel ,SAD,30MonoWAV/30MonoS1.wav,1,1,3,9,,,,,0,4,4,8,0,2,2,0,,,,,,,,,2,1.718917521999174,,,118,001,2019_Sep_26_1458,MusicAffectPsychophysiology2019,3.0.5,60.248303622882815,
To what extent did the music make you feel ,HAPPY,30MonoWAV/30MonoS1.wav,1,1,3,9,,,,,0,4,4,8,0,3,3,6,,,,,,,,,2,2.001212848999785,,,118,001,2019_Sep_26_1458,MusicAffectPsychophysiology2019,3.0.5,60.248303622882815,
To what extent did the music make you feel ,GUILTY,30MonoWAV/30MonoS1.wav,1,1,3,9,,,,,0,4,4,8,0,4,4,5,,,,,,,,,2,1.6528903439993883,,,118,001,2019_Sep_26_1458,MusicAffectPsychophysiology2019,3.0.5,60.248303622882815,
To what extent did the music make you feel ,SCARED,30MonoWAV/30MonoS1.wav,1,1,3,9,,,,,0,4,4,8,0,5,5,11,,,,,,,,,3,4.916808068001046,,,118,001,2019_Sep_26_1458,MusicAffectPsychophysiology2019,3.0.5,60.248303622882815,
To what extent did the music make you feel ,ASHAMED,30MonoWAV/30MonoS1.wav,1,1,3,9,,,,,0,4,4,8,0,6,6,4,,,,,,,,,2,2.052485287998934,,,118,001,2019_Sep_26_1458,MusicAffectPsychophysiology2019,3.0.5,60.248303622882815,
To what extent did the music make you feel ,ANXIOUS ,30MonoWAV/30MonoS1.wav,1,1,3,9,,,,,0,4,4,8,0,7,7,1,,,,,,,,,3,1.3684651310013578,,,118,001,2019_Sep_26_1458,MusicAffectPsychophysiology2019,3.0.5,60.248303622882815,
To what extent did the music make you feel ,ACTIVE,30MonoWAV/30MonoS1.wav,1,1,3,9,,,,,0,4,4,8,0,8,8,9,,,,,,,,,1,1.3525129469999229,,,118,001,2019_Sep_26_1458,MusicAffectPsychophysiology2019,3.0.5,60.248303622882815,
To what extent did the music make you feel ,TENDER,30MonoWAV/30MonoS1.wav,1,1,3,9,,,,,0,4,4,8,0,9,9,10,,,,,,,,,2,1.4715053390009416,,,118,001,2019_Sep_26_1458,MusicAffectPsychophysiology2019,3.0.5,60.248303622882815,
To what extent did the music make you feel ,FRUSTRATED,30MonoWAV/30MonoS1.wav,1,1,3,9,,,,,0,4,4,8,0,10,10,3,,,,,,,,,1,1.0550294170006964,,,118,001,2019_Sep_26_1458,MusicAffectPsychophysiology2019,3.0.5,60.248303622882815,
To what extent did the music make you feel ,EXCITED,30MonoWAV/30MonoS1.wav,1,1,3,9,,,,,0,4,4,8,0,11,11,7,,,,,,,,,1,2.9356266989998403,,,118,001,2019_Sep_26_1458,MusicAffectPsychophysiology2019,3.0.5,60.248303622882815,
,,30MonoWAV/30MonoS1.wav,1,1,3,9,,,,,0,4,4,8,,,,,,,,,,,,,,,,,118,001,2019_Sep_26_1458,MusicAffectPsychophysiology2019,3.0.5,60.248303622882815,
To what extent did the music make you feel ,GUILTY,30MonoWAV/30MonoH2.wav,2,2,1,6,,,,,0,5,5,5,0,0,0,5,,,3,3.451926978999836,4,2.4861685010000656,4,1.8668959149999864,1,1.752336927000215,,,118,001,2019_Sep_26_1458,MusicAffectPsychophysiology2019,3.0.5,60.248303622882815,
To what extent did the music make you feel ,ANXIOUS ,30MonoWAV/30MonoH2.wav,2,2,1,6,,,,,0,5,5,5,0,1,1,1,,,,,,,,,2,1.4690742120001232,,,118,001,2019_Sep_26_1458,MusicAffectPsychophysiology2019,3.0.5,60.248303622882815,
To what extent did the music make you feel ,EXCITED,30MonoWAV/30MonoH2.wav,2,2,1,6,,,,,0,5,5,5,0,2,2,7,,,,,,,,,4,1.184406398999272,,,118,001,2019_Sep_26_1458,MusicAffectPsychophysiology2019,3.0.5,60.248303622882815,
To what extent did the music make you feel ,ASHAMED,30MonoWAV/30MonoH2.wav,2,2,1,6,,,,,0,5,5,5,0,3,3,4,,,,,,,,,1,1.3855232220012113,,,118,001,2019_Sep_26_1458,MusicAffectPsychophysiology2019,3.0.5,60.248303622882815,
To what extent did the music make you feel ,ACTIVE,30MonoWAV/30MonoH2.wav,2,2,1,6,,,,,0,5,5,5,0,4,4,9,,,,,,,,,4,1.3353626419993816,,,118,001,2019_Sep_26_1458,MusicAffectPsychophysiology2019,3.0.5,60.248303622882815,
To what extent did the music make you feel ,FRUSTRATED,30MonoWAV/30MonoH2.wav,2,2,1,6,,,,,0,5,5,5,0,5,5,3,,,,,,,,,1,1.1711266330003127,,,118,001,2019_Sep_26_1458,MusicAffectPsychophysiology2019,3.0.5,60.248303622882815,
To what extent did the music make you feel ,HAPPY,30MonoWAV/30MonoH2.wav,2,2,1,6,,,,,0,5,5,5,0,6,6,6,,,,,,,,,3,1.5019252329984738,,,118,001,2019_Sep_26_1458,MusicAffectPsychophysiology2019,3.0.5,60.248303622882815,
To what extent did the music make you feel ,ALERT,30MonoWAV/30MonoH2.wav,2,2,1,6,,,,,0,5,5,5,0,7,7,8,,,,,,,,,4,1.3525604570004361,,,118,001,2019_Sep_26_1458,MusicAffectPsychophysiology2019,3.0.5,60.248303622882815,
To what extent did the music make you feel ,SAD,30MonoWAV/30MonoH2.wav,2,2,1,6,,,,,0,5,5,5,0,8,8,0,,,,,,,,,1,1.1852702889991633,,,118,001,2019_Sep_26_1458,MusicAffectPsychophysiology2019,3.0.5,60.248303622882815,
To what extent did the music make you feel ,TENDER,30MonoWAV/30MonoH2.wav,2,2,1,6,,,,,0,5,5,5,0,9,9,10,,,,,,,,,2,1.2857886439996946,,,118,001,2019_Sep_26_1458,MusicAffectPsychophysiology2019,3.0.5,60.248303622882815,
To what extent did the music make you feel ,SCARED,30MonoWAV/30MonoH2.wav,2,2,1,6,,,,,0,5,5,5,0,10,10,11,,,,,,,,,1,1.3517327539993857,,,118,001,2019_Sep_26_1458,MusicAffectPsychophysiology2019,3.0.5,60.248303622882815,
To what extent did the music make you feel ,ANGRY,30MonoWAV/30MonoH2.wav,2,2,1,6,,,,,0,5,5,5,0,11,11,2,,,,,,,,,1,1.386292113998934,,,118,001,2019_Sep_26_1458,MusicAffectPsychophysiology2019,3.0.5,60.248303622882815,
,,30MonoWAV/30MonoH2.wav,2,2,1,6,,,,,0,5,5,5,,,,,,,,,,,,,,,,,118,001,2019_Sep_26_1458,MusicAffectPsychophysiology2019,3.0.5,60.248303622882815,
To what extent did the music make you feel ,SAD,30MonoWAV/30MonoF2.wav,1,2,2,2,,,,,0,6,6,1,0,0,0,0,,,4,5.919053958999939,1,6.951277546000711,2,2.302410696000152,1,3.726100914998824,,,118,001,2019_Sep_26_1458,MusicAffectPsychophysiology2019,3.0.5,60.248303622882815,
To what extent did the music make you feel ,GUILTY,30MonoWAV/30MonoF2.wav,1,2,2,2,,,,,0,6,6,1,0,1,1,5,,,,,,,,,1,1.7859215440003027,,,118,001,2019_Sep_26_1458,MusicAffectPsychophysiology2019,3.0.5,60.248303622882815,
To what extent did the music make you feel ,ACTIVE,30MonoWAV/30MonoF2.wav,1,2,2,2,,,,,0,6,6,1,0,2,2,9,,,,,,,,,3,1.5187982589995954,,,118,001,2019_Sep_26_1458,MusicAffectPsychophysiology2019,3.0.5,60.248303622882815,
To what extent did the music make you feel ,TENDER,30MonoWAV/30MonoF2.wav,1,2,2,2,,,,,0,6,6,1,0,3,3,10,,,,,,,,,4,1.619114797000293,,,118,001,2019_Sep_26_1458,MusicAffectPsychophysiology2019,3.0.5,60.248303622882815,
To what extent did the music make you feel ,EXCITED,30MonoWAV/30MonoF2.wav,1,2,2,2,,,,,0,6,6,1,0,4,4,7,,,,,,,,,2,1.6499274100006005,,,118,001,2019_Sep_26_1458,MusicAffectPsychophysiology2019,3.0.5,60.248303622882815,
To what extent did the music make you feel ,ASHAMED,30MonoWAV/30MonoF2.wav,1,2,2,2,,,,,0,6,6,1,0,5,5,4,,,,,,,,,1,1.5193294990003778,,,118,001,2019_Sep_26_1458,MusicAffectPsychophysiology2019,3.0.5,60.248303622882815,
To what extent did the music make you feel ,SCARED,30MonoWAV/30MonoF2.wav,1,2,2,2,,,,,0,6,6,1,0,6,6,11,,,,,,,,,4,1.2686170159995527,,,118,001,2019_Sep_26_1458,MusicAffectPsychophysiology2019,3.0.5,60.248303622882815,
To what extent did the music make you feel ,HAPPY,30MonoWAV/30MonoF2.wav,1,2,2,2,,,,,0,6,6,1,0,7,7,6,,,,,,,,,1,2.6175587289999385,,,118,001,2019_Sep_26_1458,MusicAffectPsychophysiology2019,3.0.5,60.248303622882815,
To what extent did the music make you feel ,ANGRY,30MonoWAV/30MonoF2.wav,1,2,2,2,,,,,0,6,6,1,0,8,8,2,,,,,,,,,1,1.1522670340000332,,,118,001,2019_Sep_26_1458,MusicAffectPsychophysiology2019,3.0.5,60.248303622882815,
To what extent did the music make you feel ,ALERT,30MonoWAV/30MonoF2.wav,1,2,2,2,,,,,0,6,6,1,0,9,9,8,,,,,,,,,4,1.3188899979995767,,,118,001,2019_Sep_26_1458,MusicAffectPsychophysiology2019,3.0.5,60.248303622882815,
To what extent did the music make you feel ,FRUSTRATED,30MonoWAV/30MonoF2.wav,1,2,2,2,,,,,0,6,6,1,0,10,10,3,,,,,,,,,1,1.1704010749999725,,,118,001,2019_Sep_26_1458,MusicAffectPsychophysiology2019,3.0.5,60.248303622882815,
To what extent did the music make you feel ,ANXIOUS ,30MonoWAV/30MonoF2.wav,1,2,2,2,,,,,0,6,6,1,0,11,11,1,,,,,,,,,3,1.5682038470004045,,,118,001,2019_Sep_26_1458,MusicAffectPsychophysiology2019,3.0.5,60.248303622882815,
,,30MonoWAV/30MonoF2.wav,1,2,2,2,,,,,0,6,6,1,,,,,,,,,,,,,,,,,118,001,2019_Sep_26_1458,MusicAffectPsychophysiology2019,3.0.5,60.248303622882815,
To what extent did the music make you feel ,SCARED,30MonoWAV/30MonoH4.wav,2,2,1,8,,,,,0,7,7,7,0,0,0,11,,,3,4.117718502000571,4,1.9021101779999299,3,2.318259167999713,1,3.2502366349999647,,,118,001,2019_Sep_26_1458,MusicAffectPsychophysiology2019,3.0.5,60.248303622882815,
To what extent did the music make you feel ,EXCITED,30MonoWAV/30MonoH4.wav,2,2,1,8,,,,,0,7,7,7,0,1,1,7,,,,,,,,,3,1.3355565459987702,,,118,001,2019_Sep_26_1458,MusicAffectPsychophysiology2019,3.0.5,60.248303622882815,
To what extent did the music make you feel ,ANXIOUS ,30MonoWAV/30MonoH4.wav,2,2,1,8,,,,,0,7,7,7,0,2,2,1,,,,,,,,,1,1.0863112899987755,,,118,001,2019_Sep_26_1458,MusicAffectPsychophysiology2019,3.0.5,60.248303622882815,
To what extent did the music make you feel ,ANGRY,30MonoWAV/30MonoH4.wav,2,2,1,8,,,,,0,7,7,7,0,3,3,2,,,,,,,,,1,1.2178697269991972,,,118,001,2019_Sep_26_1458,MusicAffectPsychophysiology2019,3.0.5,60.248303622882815,
To what extent did the music make you feel ,HAPPY,30MonoWAV/30MonoH4.wav,2,2,1,8,,,,,0,7,7,7,0,4,4,6,,,,,,,,,3,1.1010613210000884,,,118,001,2019_Sep_26_1458,MusicAffectPsychophysiology2019,3.0.5,60.248303622882815,
To what extent did the music make you feel ,ACTIVE,30MonoWAV/30MonoH4.wav,2,2,1,8,,,,,0,7,7,7,0,5,5,9,,,,,,,,,4,1.218779333999919,,,118,001,2019_Sep_26_1458,MusicAffectPsychophysiology2019,3.0.5,60.248303622882815,
To what extent did the music make you feel ,SAD,30MonoWAV/30MonoH4.wav,2,2,1,8,,,,,0,7,7,7,0,6,6,0,,,,,,,,,1,1.8189930869993987,,,118,001,2019_Sep_26_1458,MusicAffectPsychophysiology2019,3.0.5,60.248303622882815,
To what extent did the music make you feel ,ALERT,30MonoWAV/30MonoH4.wav,2,2,1,8,,,,,0,7,7,7,0,7,7,8,,,,,,,,,3,1.0855791560006764,,,118,001,2019_Sep_26_1458,MusicAffectPsychophysiology2019,3.0.5,60.248303622882815,
To what extent did the music make you feel ,FRUSTRATED,30MonoWAV/30MonoH4.wav,2,2,1,8,,,,,0,7,7,7,0,8,8,3,,,,,,,,,1,1.0025772699991649,,,118,001,2019_Sep_26_1458,MusicAffectPsychophysiology2019,3.0.5,60.248303622882815,
To what extent did the music make you feel ,ASHAMED,30MonoWAV/30MonoH4.wav,2,2,1,8,,,,,0,7,7,7,0,9,9,4,,,,,,,,,1,1.1689081389995408,,,118,001,2019_Sep_26_1458,MusicAffectPsychophysiology2019,3.0.5,60.248303622882815,
To what extent did the music make you feel ,GUILTY,30MonoWAV/30MonoH4.wav,2,2,1,8,,,,,0,7,7,7,0,10,10,5,,,,,,,,,1,1.335546610000165,,,118,001,2019_Sep_26_1458,MusicAffectPsychophysiology2019,3.0.5,60.248303622882815,
To what extent did the music make you feel ,TENDER,30MonoWAV/30MonoH4.wav,2,2,1,8,,,,,0,7,7,7,0,11,11,10,,,,,,,,,1,1.069042441999045,,,118,001,2019_Sep_26_1458,MusicAffectPsychophysiology2019,3.0.5,60.248303622882815,
,,30MonoWAV/30MonoH4.wav,2,2,1,8,,,,,0,7,7,7,,,,,,,,,,,,,,,,,118,001,2019_Sep_26_1458,MusicAffectPsychophysiology2019,3.0.5,60.248303622882815,
To what extent did the music make you feel ,FRUSTRATED,30MonoWAV/30MonoT4.wav,2,1,4,16,,,,,0,8,8,15,0,0,0,3,,,3,5.302748611000425,4,1.4520394080009282,4,1.7704191069988156,1,3.4111689349992957,,,118,001,2019_Sep_26_1458,MusicAffectPsychophysiology2019,3.0.5,60.248303622882815,
To what extent did the music make you feel ,ACTIVE,30MonoWAV/30MonoT4.wav,2,1,4,16,,,,,0,8,8,15,0,1,1,9,,,,,,,,,2,1.3185315360005916,,,118,001,2019_Sep_26_1458,MusicAffectPsychophysiology2019,3.0.5,60.248303622882815,
To what extent did the music make you feel ,ASHAMED,30MonoWAV/30MonoT4.wav,2,1,4,16,,,,,0,8,8,15,0,2,2,4,,,,,,,,,1,0.9360630809987924,,,118,001,2019_Sep_26_1458,MusicAffectPsychophysiology2019,3.0.5,60.248303622882815,
To what extent did the music make you feel ,HAPPY,30MonoWAV/30MonoT4.wav,2,1,4,16,,,,,0,8,8,15,0,3,3,6,,,,,,,,,3,1.6188039600001503,,,118,001,2019_Sep_26_1458,MusicAffectPsychophysiology2019,3.0.5,60.248303622882815,
To what extent did the music make you feel ,GUILTY,30MonoWAV/30MonoT4.wav,2,1,4,16,,,,,0,8,8,15,0,4,4,5,,,,,,,,,1,1.201707557998816,,,118,001,2019_Sep_26_1458,MusicAffectPsychophysiology2019,3.0.5,60.248303622882815,
To what extent did the music make you feel ,SCARED,30MonoWAV/30MonoT4.wav,2,1,4,16,,,,,0,8,8,15,0,5,5,11,,,,,,,,,1,0.817419733000861,,,118,001,2019_Sep_26_1458,MusicAffectPsychophysiology2019,3.0.5,60.248303622882815,
To what extent did the music make you feel ,EXCITED,30MonoWAV/30MonoT4.wav,2,1,4,16,,,,,0,8,8,15,0,6,6,7,,,,,,,,,3,5.551510760999008,,,118,001,2019_Sep_26_1458,MusicAffectPsychophysiology2019,3.0.5,60.248303622882815,
To what extent did the music make you feel ,SAD,30MonoWAV/30MonoT4.wav,2,1,4,16,,,,,0,8,8,15,0,7,7,0,,,,,,,,,1,1.7016350020003301,,,118,001,2019_Sep_26_1458,MusicAffectPsychophysiology2019,3.0.5,60.248303622882815,
To what extent did the music make you feel ,ANXIOUS ,30MonoWAV/30MonoT4.wav,2,1,4,16,,,,,0,8,8,15,0,8,8,1,,,,,,,,,1,1.1363857209998969,,,118,001,2019_Sep_26_1458,MusicAffectPsychophysiology2019,3.0.5,60.248303622882815,
To what extent did the music make you feel ,ANGRY,30MonoWAV/30MonoT4.wav,2,1,4,16,,,,,0,8,8,15,0,9,9,2,,,,,,,,,1,1.0348966909987212,,,118,001,2019_Sep_26_1458,MusicAffectPsychophysiology2019,3.0.5,60.248303622882815,
To what extent did the music make you feel ,TENDER,30MonoWAV/30MonoT4.wav,2,1,4,16,,,,,0,8,8,15,0,10,10,10,,,,,,,,,2,1.5023935999997775,,,118,001,2019_Sep_26_1458,MusicAffectPsychophysiology2019,3.0.5,60.248303622882815,
To what extent did the music make you feel ,ALERT,30MonoWAV/30MonoT4.wav,2,1,4,16,,,,,0,8,8,15,0,11,11,8,,,,,,,,,2,1.7197825149996788,,,118,001,2019_Sep_26_1458,MusicAffectPsychophysiology2019,3.0.5,60.248303622882815,
,,30MonoWAV/30MonoT4.wav,2,1,4,16,,,,,0,8,8,15,,,,,,,,,,,,,,,,,118,001,2019_Sep_26_1458,MusicAffectPsychophysiology2019,3.0.5,60.248303622882815,
To what extent did the music make you feel ,ALERT,30MonoWAV/30MonoF1.wav,1,2,2,1,,,,,0,9,9,0,0,0,0,8,,,3,5.117247723001128,2,1.6183785169996554,2,1.8503108839995548,4,3.6855898549983976,,,118,001,2019_Sep_26_1458,MusicAffectPsychophysiology2019,3.0.5,60.248303622882815,
To what extent did the music make you feel ,HAPPY,30MonoWAV/30MonoF1.wav,1,2,2,1,,,,,0,9,9,0,0,1,1,6,,,,,,,,,2,1.4521928550002485,,,118,001,2019_Sep_26_1458,MusicAffectPsychophysiology2019,3.0.5,60.248303622882815,
To what extent did the music make you feel ,FRUSTRATED,30MonoWAV/30MonoF1.wav,1,2,2,1,,,,,0,9,9,0,0,2,2,3,,,,,,,,,1,1.2517480189999333,,,118,001,2019_Sep_26_1458,MusicAffectPsychophysiology2019,3.0.5,60.248303622882815,
To what extent did the music make you feel ,ANGRY,30MonoWAV/30MonoF1.wav,1,2,2,1,,,,,0,9,9,0,0,3,3,2,,,,,,,,,1,1.067868913998609,,,118,001,2019_Sep_26_1458,MusicAffectPsychophysiology2019,3.0.5,60.248303622882815,
To what extent did the music make you feel ,GUILTY,30MonoWAV/30MonoF1.wav,1,2,2,1,,,,,0,9,9,0,0,4,4,5,,,,,,,,,1,0.7860556519990496,,,118,001,2019_Sep_26_1458,MusicAffectPsychophysiology2019,3.0.5,60.248303622882815,
To what extent did the music make you feel ,ASHAMED,30MonoWAV/30MonoF1.wav,1,2,2,1,,,,,0,9,9,0,0,5,5,4,,,,,,,,,1,1.5189551319999737,,,118,001,2019_Sep_26_1458,MusicAffectPsychophysiology2019,3.0.5,60.248303622882815,
To what extent did the music make you feel ,TENDER,30MonoWAV/30MonoF1.wav,1,2,2,1,,,,,0,9,9,0,0,6,6,10,,,,,,,,,3,1.6857524649985862,,,118,001,2019_Sep_26_1458,MusicAffectPsychophysiology2019,3.0.5,60.248303622882815,
To what extent did the music make you feel ,ACTIVE,30MonoWAV/30MonoF1.wav,1,2,2,1,,,,,0,9,9,0,0,7,7,9,,,,,,,,,2,1.5510655340003723,,,118,001,2019_Sep_26_1458,MusicAffectPsychophysiology2019,3.0.5,60.248303622882815,
To what extent did the music make you feel ,SAD,30MonoWAV/30MonoF1.wav,1,2,2,1,,,,,0,9,9,0,0,8,8,0,,,,,,,,,1,1.5165735330010648,,,118,001,2019_Sep_26_1458,MusicAffectPsychophysiology2019,3.0.5,60.248303622882815,
To what extent did the music make you feel ,SCARED,30MonoWAV/30MonoF1.wav,1,2,2,1,,,,,0,9,9,0,0,9,9,11,,,,,,,,,2,1.2520219270008965,,,118,001,2019_Sep_26_1458,MusicAffectPsychophysiology2019,3.0.5,60.248303622882815,
To what extent did the music make you feel ,EXCITED,30MonoWAV/30MonoF1.wav,1,2,2,1,,,,,0,9,9,0,0,10,10,7,,,,,,,,,2,2.7512529230007203,,,118,001,2019_Sep_26_1458,MusicAffectPsychophysiology2019,3.0.5,60.248303622882815,
To what extent did the music make you feel ,ANXIOUS ,30MonoWAV/30MonoF1.wav,1,2,2,1,,,,,0,9,9,0,0,11,11,1,,,,,,,,,3,1.5352555129993561,,,118,001,2019_Sep_26_1458,MusicAffectPsychophysiology2019,3.0.5,60.248303622882815,
,,30MonoWAV/30MonoF1.wav,1,2,2,1,,,,,0,9,9,0,,,,,,,,,,,,,,,,,118,001,2019_Sep_26_1458,MusicAffectPsychophysiology2019,3.0.5,60.248303622882815,
To what extent did the music make you feel ,ASHAMED,30MonoWAV/30MonoT3.wav,2,1,4,15,,,,,0,10,10,14,0,0,0,4,,,2,4.068694116998813,3,1.8685917339989828,3,1.3679361790000257,1,3.36032554600024,,,118,001,2019_Sep_26_1458,MusicAffectPsychophysiology2019,3.0.5,60.248303622882815,
To what extent did the music make you feel ,HAPPY,30MonoWAV/30MonoT3.wav,2,1,4,15,,,,,0,10,10,14,0,1,1,6,,,,,,,,,3,1.2855424909994326,,,118,001,2019_Sep_26_1458,MusicAffectPsychophysiology2019,3.0.5,60.248303622882815,
To what extent did the music make you feel ,FRUSTRATED,30MonoWAV/30MonoT3.wav,2,1,4,15,,,,,0,10,10,14,0,2,2,3,,,,,,,,,1,1.3367306159998407,,,118,001,2019_Sep_26_1458,MusicAffectPsychophysiology2019,3.0.5,60.248303622882815,
To what extent did the music make you feel ,ALERT,30MonoWAV/30MonoT3.wav,2,1,4,15,,,,,0,10,10,14,0,3,3,8,,,,,,,,,1,2.4022431800003687,,,118,001,2019_Sep_26_1458,MusicAffectPsychophysiology2019,3.0.5,60.248303622882815,
To what extent did the music make you feel ,TENDER,30MonoWAV/30MonoT3.wav,2,1,4,15,,,,,0,10,10,14,0,4,4,10,,,,,,,,,1,1.0196664670002065,,,118,001,2019_Sep_26_1458,MusicAffectPsychophysiology2019,3.0.5,60.248303622882815,
To what extent did the music make you feel ,ACTIVE,30MonoWAV/30MonoT3.wav,2,1,4,15,,,,,0,10,10,14,0,5,5,9,,,,,,,,,1,1.0678006030011602,,,118,001,2019_Sep_26_1458,MusicAffectPsychophysiology2019,3.0.5,60.248303622882815,
To what extent did the music make you feel ,SCARED,30MonoWAV/30MonoT3.wav,2,1,4,15,,,,,0,10,10,14,0,6,6,11,,,,,,,,,1,1.3192616229989653,,,118,001,2019_Sep_26_1458,MusicAffectPsychophysiology2019,3.0.5,60.248303622882815,
To what extent did the music make you feel ,GUILTY,30MonoWAV/30MonoT3.wav,2,1,4,15,,,,,0,10,10,14,0,7,7,5,,,,,,,,,1,3.2347260100013955,,,118,001,2019_Sep_26_1458,MusicAffectPsychophysiology2019,3.0.5,60.248303622882815,
To what extent did the music make you feel ,ANGRY,30MonoWAV/30MonoT3.wav,2,1,4,15,,,,,0,10,10,14,0,8,8,2,,,,,,,,,1,1.2531668310002715,,,118,001,2019_Sep_26_1458,MusicAffectPsychophysiology2019,3.0.5,60.248303622882815,
To what extent did the music make you feel ,SAD,30MonoWAV/30MonoT3.wav,2,1,4,15,,,,,0,10,10,14,0,9,9,0,,,,,,,,,2,1.6201887350016477,,,118,001,2019_Sep_26_1458,MusicAffectPsychophysiology2019,3.0.5,60.248303622882815,
To what extent did the music make you feel ,ANXIOUS ,30MonoWAV/30MonoT3.wav,2,1,4,15,,,,,0,10,10,14,0,10,10,1,,,,,,,,,1,1.2023399959998642,,,118,001,2019_Sep_26_1458,MusicAffectPsychophysiology2019,3.0.5,60.248303622882815,
To what extent did the music make you feel ,EXCITED,30MonoWAV/30MonoT3.wav,2,1,4,15,,,,,0,10,10,14,0,11,11,7,,,,,,,,,2,1.4688226620000933,,,118,001,2019_Sep_26_1458,MusicAffectPsychophysiology2019,3.0.5,60.248303622882815,
,,30MonoWAV/30MonoT3.wav,2,1,4,15,,,,,0,10,10,14,,,,,,,,,,,,,,,,,118,001,2019_Sep_26_1458,MusicAffectPsychophysiology2019,3.0.5,60.248303622882815,
To what extent did the music make you feel ,ANGRY,30MonoWAV/30MonoF3.wav,1,2,2,3,,,,,0,11,11,2,0,0,0,2,,,3,7.051969497000755,2,2.0359957259988732,2,1.4026494520003325,2,2.267948720998902,,,118,001,2019_Sep_26_1458,MusicAffectPsychophysiology2019,3.0.5,60.248303622882815,
To what extent did the music make you feel ,SCARED,30MonoWAV/30MonoF3.wav,1,2,2,3,,,,,0,11,11,2,0,1,1,11,,,,,,,,,2,1.1185585799994442,,,118,001,2019_Sep_26_1458,MusicAffectPsychophysiology2019,3.0.5,60.248303622882815,
To what extent did the music make you feel ,SAD,30MonoWAV/30MonoF3.wav,1,2,2,3,,,,,0,11,11,2,0,2,2,0,,,,,,,,,1,2.2665489119990525,,,118,001,2019_Sep_26_1458,MusicAffectPsychophysiology2019,3.0.5,60.248303622882815,
To what extent did the music make you feel ,FRUSTRATED,30MonoWAV/30MonoF3.wav,1,2,2,3,,,,,0,11,11,2,0,3,3,3,,,,,,,,,2,1.619143387000804,,,118,001,2019_Sep_26_1458,MusicAffectPsychophysiology2019,3.0.5,60.248303622882815,
To what extent did the music make you feel ,ALERT,30MonoWAV/30MonoF3.wav,1,2,2,3,,,,,0,11,11,2,0,4,4,8,,,,,,,,,3,1.6179515019994142,,,118,001,2019_Sep_26_1458,MusicAffectPsychophysiology2019,3.0.5,60.248303622882815,
To what extent did the music make you feel ,EXCITED,30MonoWAV/30MonoF3.wav,1,2,2,3,,,,,0,11,11,2,0,5,5,7,,,,,,,,,2,1.5328794610013574,,,118,001,2019_Sep_26_1458,MusicAffectPsychophysiology2019,3.0.5,60.248303622882815,
To what extent did the music make you feel ,TENDER,30MonoWAV/30MonoF3.wav,1,2,2,3,,,,,0,11,11,2,0,6,6,10,,,,,,,,,2,1.5362601590004488,,,118,001,2019_Sep_26_1458,MusicAffectPsychophysiology2019,3.0.5,60.248303622882815,
To what extent did the music make you feel ,ANXIOUS ,30MonoWAV/30MonoF3.wav,1,2,2,3,,,,,0,11,11,2,0,7,7,1,,,,,,,,,3,1.1858359449997806,,,118,001,2019_Sep_26_1458,MusicAffectPsychophysiology2019,3.0.5,60.248303622882815,
To what extent did the music make you feel ,GUILTY,30MonoWAV/30MonoF3.wav,1,2,2,3,,,,,0,11,11,2,0,8,8,5,,,,,,,,,3,1.6164282039990212,,,118,001,2019_Sep_26_1458,MusicAffectPsychophysiology2019,3.0.5,60.248303622882815,
To what extent did the music make you feel ,ASHAMED,30MonoWAV/30MonoF3.wav,1,2,2,3,,,,,0,11,11,2,0,9,9,4,,,,,,,,,1,1.3356638099994598,,,118,001,2019_Sep_26_1458,MusicAffectPsychophysiology2019,3.0.5,60.248303622882815,
To what extent did the music make you feel ,ACTIVE,30MonoWAV/30MonoF3.wav,1,2,2,3,,,,,0,11,11,2,0,10,10,9,,,,,,,,,2,2.4863258260011207,,,118,001,2019_Sep_26_1458,MusicAffectPsychophysiology2019,3.0.5,60.248303622882815,
To what extent did the music make you feel ,HAPPY,30MonoWAV/30MonoF3.wav,1,2,2,3,,,,,0,11,11,2,0,11,11,6,,,,,,,,,1,1.9191320210011327,,,118,001,2019_Sep_26_1458,MusicAffectPsychophysiology2019,3.0.5,60.248303622882815,
,,30MonoWAV/30MonoF3.wav,1,2,2,3,,,,,0,11,11,2,,,,,,,,,,,,,,,,,118,001,2019_Sep_26_1458,MusicAffectPsychophysiology2019,3.0.5,60.248303622882815,
To what extent did the music make you feel ,SCARED,30MonoWAV/30MonoT2.wav,2,1,4,14,,,,,0,12,12,13,0,0,0,11,,,3,3.5339474900010828,3,2.102157679000811,4,1.6364758840009017,1,1.8631847569995443,,,118,001,2019_Sep_26_1458,MusicAffectPsychophysiology2019,3.0.5,60.248303622882815,
To what extent did the music make you feel ,ALERT,30MonoWAV/30MonoT2.wav,2,1,4,14,,,,,0,12,12,13,0,1,1,8,,,,,,,,,2,1.1693289609993371,,,118,001,2019_Sep_26_1458,MusicAffectPsychophysiology2019,3.0.5,60.248303622882815,
To what extent did the music make you feel ,TENDER,30MonoWAV/30MonoT2.wav,2,1,4,14,,,,,0,12,12,13,0,2,2,10,,,,,,,,,2,0.9850433690007776,,,118,001,2019_Sep_26_1458,MusicAffectPsychophysiology2019,3.0.5,60.248303622882815,
To what extent did the music make you feel ,ANXIOUS ,30MonoWAV/30MonoT2.wav,2,1,4,14,,,,,0,12,12,13,0,3,3,1,,,,,,,,,2,1.3189178360007645,,,118,001,2019_Sep_26_1458,MusicAffectPsychophysiology2019,3.0.5,60.248303622882815,
To what extent did the music make you feel ,FRUSTRATED,30MonoWAV/30MonoT2.wav,2,1,4,14,,,,,0,12,12,13,0,4,4,3,,,,,,,,,1,1.4701177980005014,,,118,001,2019_Sep_26_1458,MusicAffectPsychophysiology2019,3.0.5,60.248303622882815,
To what extent did the music make you feel ,ASHAMED,30MonoWAV/30MonoT2.wav,2,1,4,14,,,,,0,12,12,13,0,5,5,4,,,,,,,,,1,1.019034979000935,,,118,001,2019_Sep_26_1458,MusicAffectPsychophysiology2019,3.0.5,60.248303622882815,
To what extent did the music make you feel ,ANGRY,30MonoWAV/30MonoT2.wav,2,1,4,14,,,,,0,12,12,13,0,6,6,2,,,,,,,,,1,0.9354746530007105,,,118,001,2019_Sep_26_1458,MusicAffectPsychophysiology2019,3.0.5,60.248303622882815,
To what extent did the music make you feel ,ACTIVE,30MonoWAV/30MonoT2.wav,2,1,4,14,,,,,0,12,12,13,0,7,7,9,,,,,,,,,1,1.6184705899995606,,,118,001,2019_Sep_26_1458,MusicAffectPsychophysiology2019,3.0.5,60.248303622882815,
To what extent did the music make you feel ,GUILTY,30MonoWAV/30MonoT2.wav,2,1,4,14,,,,,0,12,12,13,0,8,8,5,,,,,,,,,1,1.8858317989997886,,,118,001,2019_Sep_26_1458,MusicAffectPsychophysiology2019,3.0.5,60.248303622882815,
To what extent did the music make you feel ,HAPPY,30MonoWAV/30MonoT2.wav,2,1,4,14,,,,,0,12,12,13,0,9,9,6,,,,,,,,,3,1.235288035000849,,,118,001,2019_Sep_26_1458,MusicAffectPsychophysiology2019,3.0.5,60.248303622882815,
To what extent did the music make you feel ,EXCITED,30MonoWAV/30MonoT2.wav,2,1,4,14,,,,,0,12,12,13,0,10,10,7,,,,,,,,,1,1.6524943339991296,,,118,001,2019_Sep_26_1458,MusicAffectPsychophysiology2019,3.0.5,60.248303622882815,
To what extent did the music make you feel ,SAD,30MonoWAV/30MonoT2.wav,2,1,4,14,,,,,0,12,12,13,0,11,11,0,,,,,,,,,1,1.3023934990014823,,,118,001,2019_Sep_26_1458,MusicAffectPsychophysiology2019,3.0.5,60.248303622882815,
,,30MonoWAV/30MonoT2.wav,2,1,4,14,,,,,0,12,12,13,,,,,,,,,,,,,,,,,118,001,2019_Sep_26_1458,MusicAffectPsychophysiology2019,3.0.5,60.248303622882815,
To what extent did the music make you feel ,HAPPY,30MonoWAV/30MonoS2.wav,1,1,3,10,,,,,0,13,13,9,0,0,0,6,,,2,3.3192895850006607,3,2.752441833001285,2,1.2860921459996462,2,1.5896733259996836,,,118,001,2019_Sep_26_1458,MusicAffectPsychophysiology2019,3.0.5,60.248303622882815,
To what extent did the music make you feel ,EXCITED,30MonoWAV/30MonoS2.wav,1,1,3,10,,,,,0,13,13,9,0,1,1,7,,,,,,,,,2,1.0676885810007661,,,118,001,2019_Sep_26_1458,MusicAffectPsychophysiology2019,3.0.5,60.248303622882815,
To what extent did the music make you feel ,ANGRY,30MonoWAV/30MonoS2.wav,1,1,3,10,,,,,0,13,13,9,0,2,2,2,,,,,,,,,1,1.2183753999997862,,,118,001,2019_Sep_26_1458,MusicAffectPsychophysiology2019,3.0.5,60.248303622882815,
To what extent did the music make you feel ,TENDER,30MonoWAV/30MonoS2.wav,1,1,3,10,,,,,0,13,13,9,0,3,3,10,,,,,,,,,1,0.8498281020001741,,,118,001,2019_Sep_26_1458,MusicAffectPsychophysiology2019,3.0.5,60.248303622882815,
To what extent did the music make you feel ,GUILTY,30MonoWAV/30MonoS2.wav,1,1,3,10,,,,,0,13,13,9,0,4,4,5,,,,,,,,,1,0.8028282499999477,,,118,001,2019_Sep_26_1458,MusicAffectPsychophysiology2019,3.0.5,60.248303622882815,
To what extent did the music make you feel ,ANXIOUS ,30MonoWAV/30MonoS2.wav,1,1,3,10,,,,,0,13,13,9,0,5,5,1,,,,,,,,,2,1.2850648280000314,,,118,001,2019_Sep_26_1458,MusicAffectPsychophysiology2019,3.0.5,60.248303622882815,
To what extent did the music make you feel ,ASHAMED,30MonoWAV/30MonoS2.wav,1,1,3,10,,,,,0,13,13,9,0,6,6,4,,,,,,,,,2,1.8852692629989178,,,118,001,2019_Sep_26_1458,MusicAffectPsychophysiology2019,3.0.5,60.248303622882815,
To what extent did the music make you feel ,SAD,30MonoWAV/30MonoS2.wav,1,1,3,10,,,,,0,13,13,9,0,7,7,0,,,,,,,,,2,1.4360995110000658,,,118,001,2019_Sep_26_1458,MusicAffectPsychophysiology2019,3.0.5,60.248303622882815,
To what extent did the music make you feel ,ALERT,30MonoWAV/30MonoS2.wav,1,1,3,10,,,,,0,13,13,9,0,8,8,8,,,,,,,,,1,3.352166948001468,,,118,001,2019_Sep_26_1458,MusicAffectPsychophysiology2019,3.0.5,60.248303622882815,
To what extent did the music make you feel ,ACTIVE,30MonoWAV/30MonoS2.wav,1,1,3,10,,,,,0,13,13,9,0,9,9,9,,,,,,,,,1,1.150463748999755,,,118,001,2019_Sep_26_1458,MusicAffectPsychophysiology2019,3.0.5,60.248303622882815,
To what extent did the music make you feel ,FRUSTRATED,30MonoWAV/30MonoS2.wav,1,1,3,10,,,,,0,13,13,9,0,10,10,3,,,,,,,,,1,2.6196254890001,,,118,001,2019_Sep_26_1458,MusicAffectPsychophysiology2019,3.0.5,60.248303622882815,
To what extent did the music make you feel ,SCARED,30MonoWAV/30MonoS2.wav,1,1,3,10,,,,,0,13,13,9,0,11,11,11,,,,,,,,,1,1.2201492089989188,,,118,001,2019_Sep_26_1458,MusicAffectPsychophysiology2019,3.0.5,60.248303622882815,
,,30MonoWAV/30MonoS2.wav,1,1,3,10,,,,,0,13,13,9,,,,,,,,,,,,,,,,,118,001,2019_Sep_26_1458,MusicAffectPsychophysiology2019,3.0.5,60.248303622882815,
To what extent did the music make you feel ,TENDER,30MonoWAV/30MonoH3.wav,2,2,1,7,,,,,0,14,14,6,0,0,0,10,,,4,3.868388970999149,4,1.9516506100007973,4,1.5675792880010704,1,1.9336782499995024,,,118,001,2019_Sep_26_1458,MusicAffectPsychophysiology2019,3.0.5,60.248303622882815,
To what extent did the music make you feel ,SAD,30MonoWAV/30MonoH3.wav,2,2,1,7,,,,,0,14,14,6,0,1,1,0,,,,,,,,,1,1.1529242879987578,,,118,001,2019_Sep_26_1458,MusicAffectPsychophysiology2019,3.0.5,60.248303622882815,
To what extent did the music make you feel ,ALERT,30MonoWAV/30MonoH3.wav,2,2,1,7,,,,,0,14,14,6,0,2,2,8,,,,,,,,,3,1.3356517890006216,,,118,001,2019_Sep_26_1458,MusicAffectPsychophysiology2019,3.0.5,60.248303622882815,
To what extent did the music make you feel ,ACTIVE,30MonoWAV/30MonoH3.wav,2,2,1,7,,,,,0,14,14,6,0,3,3,9,,,,,,,,,4,1.286351630000354,,,118,001,2019_Sep_26_1458,MusicAffectPsychophysiology2019,3.0.5,60.248303622882815,
To what extent did the music make you feel ,ANGRY,30MonoWAV/30MonoH3.wav,2,2,1,7,,,,,0,14,14,6,0,4,4,2,,,,,,,,,1,1.3021532250004384,,,118,001,2019_Sep_26_1458,MusicAffectPsychophysiology2019,3.0.5,60.248303622882815,
To what extent did the music make you feel ,FRUSTRATED,30MonoWAV/30MonoH3.wav,2,2,1,7,,,,,0,14,14,6,0,5,5,3,,,,,,,,,1,1.1361019289997785,,,118,001,2019_Sep_26_1458,MusicAffectPsychophysiology2019,3.0.5,60.248303622882815,
To what extent did the music make you feel ,EXCITED,30MonoWAV/30MonoH3.wav,2,2,1,7,,,,,0,14,14,6,0,6,6,7,,,,,,,,,4,1.166608831999838,,,118,001,2019_Sep_26_1458,MusicAffectPsychophysiology2019,3.0.5,60.248303622882815,
To what extent did the music make you feel ,GUILTY,30MonoWAV/30MonoH3.wav,2,2,1,7,,,,,0,14,14,6,0,7,7,5,,,,,,,,,1,3.068769968000197,,,118,001,2019_Sep_26_1458,MusicAffectPsychophysiology2019,3.0.5,60.248303622882815,
To what extent did the music make you feel ,ASHAMED,30MonoWAV/30MonoH3.wav,2,2,1,7,,,,,0,14,14,6,0,8,8,4,,,,,,,,,1,0.9862710640009027,,,118,001,2019_Sep_26_1458,MusicAffectPsychophysiology2019,3.0.5,60.248303622882815,
To what extent did the music make you feel ,ANXIOUS ,30MonoWAV/30MonoH3.wav,2,2,1,7,,,,,0,14,14,6,0,9,9,1,,,,,,,,,1,0.9862056050005776,,,118,001,2019_Sep_26_1458,MusicAffectPsychophysiology2019,3.0.5,60.248303622882815,
To what extent did the music make you feel ,HAPPY,30MonoWAV/30MonoH3.wav,2,2,1,7,,,,,0,14,14,6,0,10,10,6,,,,,,,,,4,1.21972295300111,,,118,001,2019_Sep_26_1458,MusicAffectPsychophysiology2019,3.0.5,60.248303622882815,
To what extent did the music make you feel ,SCARED,30MonoWAV/30MonoH3.wav,2,2,1,7,,,,,0,14,14,6,0,11,11,11,,,,,,,,,1,1.1022277390002273,,,118,001,2019_Sep_26_1458,MusicAffectPsychophysiology2019,3.0.5,60.248303622882815,
,,30MonoWAV/30MonoH3.wav,2,2,1,7,,,,,0,14,14,6,,,,,,,,,,,,,,,,,118,001,2019_Sep_26_1458,MusicAffectPsychophysiology2019,3.0.5,60.248303622882815,
To what extent did the music make you feel ,ACTIVE,30MonoWAV/30MonoS4.wav,1,1,3,12,,,,,0,15,15,11,0,0,0,9,,,2,5.683032000999447,2,1.2695479550002347,2,3.7166194830006134,1,3.3845981289996416,,,118,001,2019_Sep_26_1458,MusicAffectPsychophysiology2019,3.0.5,60.248303622882815,
To what extent did the music make you feel ,ASHAMED,30MonoWAV/30MonoS4.wav,1,1,3,12,,,,,0,15,15,11,0,1,1,4,,,,,,,,,2,1.3349719170000753,,,118,001,2019_Sep_26_1458,MusicAffectPsychophysiology2019,3.0.5,60.248303622882815,
To what extent did the music make you feel ,GUILTY,30MonoWAV/30MonoS4.wav,1,1,3,12,,,,,0,15,15,11,0,2,2,5,,,,,,,,,3,1.2861531779999495,,,118,001,2019_Sep_26_1458,MusicAffectPsychophysiology2019,3.0.5,60.248303622882815,
To what extent did the music make you feel ,TENDER,30MonoWAV/30MonoS4.wav,1,1,3,12,,,,,0,15,15,11,0,3,3,10,,,,,,,,,3,1.1694377599997097,,,118,001,2019_Sep_26_1458,MusicAffectPsychophysiology2019,3.0.5,60.248303622882815,
To what extent did the music make you feel ,EXCITED,30MonoWAV/30MonoS4.wav,1,1,3,12,,,,,0,15,15,11,0,4,4,7,,,,,,,,,1,1.369457375998536,,,118,001,2019_Sep_26_1458,MusicAffectPsychophysiology2019,3.0.5,60.248303622882815,
To what extent did the music make you feel ,HAPPY,30MonoWAV/30MonoS4.wav,1,1,3,12,,,,,0,15,15,11,0,5,5,6,,,,,,,,,1,2.034995619000256,,,118,001,2019_Sep_26_1458,MusicAffectPsychophysiology2019,3.0.5,60.248303622882815,
To what extent did the music make you feel ,ANXIOUS ,30MonoWAV/30MonoS4.wav,1,1,3,12,,,,,0,15,15,11,0,6,6,1,,,,,,,,,3,1.7855870469993533,,,118,001,2019_Sep_26_1458,MusicAffectPsychophysiology2019,3.0.5,60.248303622882815,
To what extent did the music make you feel ,ANGRY,30MonoWAV/30MonoS4.wav,1,1,3,12,,,,,0,15,15,11,0,7,7,2,,,,,,,,,1,2.2019943369996327,,,118,001,2019_Sep_26_1458,MusicAffectPsychophysiology2019,3.0.5,60.248303622882815,
To what extent did the music make you feel ,SAD,30MonoWAV/30MonoS4.wav,1,1,3,12,,,,,0,15,15,11,0,8,8,0,,,,,,,,,4,1.6864133779999975,,,118,001,2019_Sep_26_1458,MusicAffectPsychophysiology2019,3.0.5,60.248303622882815,
To what extent did the music make you feel ,SCARED,30MonoWAV/30MonoS4.wav,1,1,3,12,,,,,0,15,15,11,0,9,9,11,,,,,,,,,1,1.9194662019999669,,,118,001,2019_Sep_26_1458,MusicAffectPsychophysiology2019,3.0.5,60.248303622882815,
To what extent did the music make you feel ,FRUSTRATED,30MonoWAV/30MonoS4.wav,1,1,3,12,,,,,0,15,15,11,0,10,10,3,,,,,,,,,1,1.735980978999578,,,118,001,2019_Sep_26_1458,MusicAffectPsychophysiology2019,3.0.5,60.248303622882815,
To what extent did the music make you feel ,ALERT,30MonoWAV/30MonoS4.wav,1,1,3,12,,,,,0,15,15,11,0,11,11,8,,,,,,,,,1,0.9353239669999311,,,118,001,2019_Sep_26_1458,MusicAffectPsychophysiology2019,3.0.5,60.248303622882815,
,,30MonoWAV/30MonoS4.wav,1,1,3,12,,,,,0,15,15,11,,,,,,,,,,,,,,,,,118,001,2019_Sep_26_1458,MusicAffectPsychophysiology2019,3.0.5,60.248303622882815,
To what extent did the music make you feel ,ANGRY,30MonoWAV/30MonoF3.wav,1,2,2,3,,,,,1,0,16,2,0,0,0,2,,,3,10.135413314999823,2,4.816540582000016,2,1.6522255340005358,2,2.051195130999986,,,118,001,2019_Sep_26_1458,MusicAffectPsychophysiology2019,3.0.5,60.248303622882815,
To what extent did the music make you feel ,SAD,30MonoWAV/30MonoF3.wav,1,2,2,3,,,,,1,0,16,2,0,1,1,0,,,,,,,,,2,1.0195429710001918,,,118,001,2019_Sep_26_1458,MusicAffectPsychophysiology2019,3.0.5,60.248303622882815,
To what extent did the music make you feel ,FRUSTRATED,30MonoWAV/30MonoF3.wav,1,2,2,3,,,,,1,0,16,2,0,2,2,3,,,,,,,,,2,0.9160038690006331,,,118,001,2019_Sep_26_1458,MusicAffectPsychophysiology2019,3.0.5,60.248303622882815,
To what extent did the music make you feel ,ASHAMED,30MonoWAV/30MonoF3.wav,1,2,2,3,,,,,1,0,16,2,0,3,3,4,,,,,,,,,1,2.3519076500015217,,,118,001,2019_Sep_26_1458,MusicAffectPsychophysiology2019,3.0.5,60.248303622882815,
To what extent did the music make you feel ,ANXIOUS ,30MonoWAV/30MonoF3.wav,1,2,2,3,,,,,1,0,16,2,0,4,4,1,,,,,,,,,3,1.3515491769994696,,,118,001,2019_Sep_26_1458,MusicAffectPsychophysiology2019,3.0.5,60.248303622882815,
To what extent did the music make you feel ,ACTIVE,30MonoWAV/30MonoF3.wav,1,2,2,3,,,,,1,0,16,2,0,5,5,9,,,,,,,,,2,1.4855857999991713,,,118,001,2019_Sep_26_1458,MusicAffectPsychophysiology2019,3.0.5,60.248303622882815,
To what extent did the music make you feel ,SCARED,30MonoWAV/30MonoF3.wav,1,2,2,3,,,,,1,0,16,2,0,6,6,11,,,,,,,,,2,1.3854991900007008,,,118,001,2019_Sep_26_1458,MusicAffectPsychophysiology2019,3.0.5,60.248303622882815,
To what extent did the music make you feel ,TENDER,30MonoWAV/30MonoF3.wav,1,2,2,3,,,,,1,0,16,2,0,7,7,10,,,,,,,,,2,0.9023302899986447,,,118,001,2019_Sep_26_1458,MusicAffectPsychophysiology2019,3.0.5,60.248303622882815,
To what extent did the music make you feel ,EXCITED,30MonoWAV/30MonoF3.wav,1,2,2,3,,,,,1,0,16,2,0,8,8,7,,,,,,,,,1,2.4529025760002696,,,118,001,2019_Sep_26_1458,MusicAffectPsychophysiology2019,3.0.5,60.248303622882815,
To what extent did the music make you feel ,HAPPY,30MonoWAV/30MonoF3.wav,1,2,2,3,,,,,1,0,16,2,0,9,9,6,,,,,,,,,1,1.7191024590010784,,,118,001,2019_Sep_26_1458,MusicAffectPsychophysiology2019,3.0.5,60.248303622882815,
To what extent did the music make you feel ,GUILTY,30MonoWAV/30MonoF3.wav,1,2,2,3,,,,,1,0,16,2,0,10,10,5,,,,,,,,,2,4.31881404699925,,,118,001,2019_Sep_26_1458,MusicAffectPsychophysiology2019,3.0.5,60.248303622882815,
To what extent did the music make you feel ,ALERT,30MonoWAV/30MonoF3.wav,1,2,2,3,,,,,1,0,16,2,0,11,11,8,,,,,,,,,2,1.4685432500009483,,,118,001,2019_Sep_26_1458,MusicAffectPsychophysiology2019,3.0.5,60.248303622882815,
,,30MonoWAV/30MonoF3.wav,1,2,2,3,,,,,1,0,16,2,,,,,,,,,,,,,,,,,118,001,2019_Sep_26_1458,MusicAffectPsychophysiology2019,3.0.5,60.248303622882815,
To what extent did the music make you feel ,ANGRY,30MonoWAV/30MonoF4.wav,1,2,2,4,,,,,1,1,17,3,0,0,0,2,,,3,3.2668818070014822,2,1.4523565689996758,2,1.9351919249984348,2,3.0429803480001283,,,118,001,2019_Sep_26_1458,MusicAffectPsychophysiology2019,3.0.5,60.248303622882815,
To what extent did the music make you feel ,ALERT,30MonoWAV/30MonoF4.wav,1,2,2,4,,,,,1,1,17,3,0,1,1,8,,,,,,,,,3,0.9516056850006862,,,118,001,2019_Sep_26_1458,MusicAffectPsychophysiology2019,3.0.5,60.248303622882815,
To what extent did the music make you feel ,ASHAMED,30MonoWAV/30MonoF4.wav,1,2,2,4,,,,,1,1,17,3,0,2,2,4,,,,,,,,,1,1.8685871950001456,,,118,001,2019_Sep_26_1458,MusicAffectPsychophysiology2019,3.0.5,60.248303622882815,
To what extent did the music make you feel ,HAPPY,30MonoWAV/30MonoF4.wav,1,2,2,4,,,,,1,1,17,3,0,3,3,6,,,,,,,,,2,1.119685527000911,,,118,001,2019_Sep_26_1458,MusicAffectPsychophysiology2019,3.0.5,60.248303622882815,
To what extent did the music make you feel ,ACTIVE,30MonoWAV/30MonoF4.wav,1,2,2,4,,,,,1,1,17,3,0,4,4,9,,,,,,,,,3,2.9169674849999865,,,118,001,2019_Sep_26_1458,MusicAffectPsychophysiology2019,3.0.5,60.248303622882815,
To what extent did the music make you feel ,SAD,30MonoWAV/30MonoF4.wav,1,2,2,4,,,,,1,1,17,3,0,5,5,0,,,,,,,,,1,1.6200872810004512,,,118,001,2019_Sep_26_1458,MusicAffectPsychophysiology2019,3.0.5,60.248303622882815,
To what extent did the music make you feel ,GUILTY,30MonoWAV/30MonoF4.wav,1,2,2,4,,,,,1,1,17,3,0,6,6,5,,,,,,,,,2,3.785943179000242,,,118,001,2019_Sep_26_1458,MusicAffectPsychophysiology2019,3.0.5,60.248303622882815,
To what extent did the music make you feel ,EXCITED,30MonoWAV/30MonoF4.wav,1,2,2,4,,,,,1,1,17,3,0,7,7,7,,,,,,,,,3,1.2688287809996837,,,118,001,2019_Sep_26_1458,MusicAffectPsychophysiology2019,3.0.5,60.248303622882815,
To what extent did the music make you feel ,FRUSTRATED,30MonoWAV/30MonoF4.wav,1,2,2,4,,,,,1,1,17,3,0,8,8,3,,,,,,,,,2,1.8859689359996992,,,118,001,2019_Sep_26_1458,MusicAffectPsychophysiology2019,3.0.5,60.248303622882815,
To what extent did the music make you feel ,ANXIOUS ,30MonoWAV/30MonoF4.wav,1,2,2,4,,,,,1,1,17,3,0,9,9,1,,,,,,,,,3,1.151776766000694,,,118,001,2019_Sep_26_1458,MusicAffectPsychophysiology2019,3.0.5,60.248303622882815,
To what extent did the music make you feel ,SCARED,30MonoWAV/30MonoF4.wav,1,2,2,4,,,,,1,1,17,3,0,10,10,11,,,,,,,,,2,1.3191027970005962,,,118,001,2019_Sep_26_1458,MusicAffectPsychophysiology2019,3.0.5,60.248303622882815,
To what extent did the music make you feel ,TENDER,30MonoWAV/30MonoF4.wav,1,2,2,4,,,,,1,1,17,3,0,11,11,10,,,,,,,,,2,1.0356062999999267,,,118,001,2019_Sep_26_1458,MusicAffectPsychophysiology2019,3.0.5,60.248303622882815,
,,30MonoWAV/30MonoF4.wav,1,2,2,4,,,,,1,1,17,3,,,,,,,,,,,,,,,,,118,001,2019_Sep_26_1458,MusicAffectPsychophysiology2019,3.0.5,60.248303622882815,
To what extent did the music make you feel ,ANGRY,30MonoWAV/30MonoT2.wav,2,1,4,14,,,,,1,2,18,13,0,0,0,2,,,3,5.803199820000373,3,1.3684376689998317,3,1.4190806480000902,1,3.13436688100046,,,118,001,2019_Sep_26_1458,MusicAffectPsychophysiology2019,3.0.5,60.248303622882815,
To what extent did the music make you feel ,SAD,30MonoWAV/30MonoT2.wav,2,1,4,14,,,,,1,2,18,13,0,1,1,0,,,,,,,,,2,1.3023340079998889,,,118,001,2019_Sep_26_1458,MusicAffectPsychophysiology2019,3.0.5,60.248303622882815,
To what extent did the music make you feel ,EXCITED,30MonoWAV/30MonoT2.wav,2,1,4,14,,,,,1,2,18,13,0,2,2,7,,,,,,,,,2,1.3000365009993402,,,118,001,2019_Sep_26_1458,MusicAffectPsychophysiology2019,3.0.5,60.248303622882815,
To what extent did the music make you feel ,HAPPY,30MonoWAV/30MonoT2.wav,2,1,4,14,,,,,1,2,18,13,0,3,3,6,,,,,,,,,3,1.2024877639996703,,,118,001,2019_Sep_26_1458,MusicAffectPsychophysiology2019,3.0.5,60.248303622882815,
To what extent did the music make you feel ,ANXIOUS ,30MonoWAV/30MonoT2.wav,2,1,4,14,,,,,1,2,18,13,0,4,4,1,,,,,,,,,2,2.9856901679995644,,,118,001,2019_Sep_26_1458,MusicAffectPsychophysiology2019,3.0.5,60.248303622882815,
To what extent did the music make you feel ,ASHAMED,30MonoWAV/30MonoT2.wav,2,1,4,14,,,,,1,2,18,13,0,5,5,4,,,,,,,,,1,0.8353911160011194,,,118,001,2019_Sep_26_1458,MusicAffectPsychophysiology2019,3.0.5,60.248303622882815,
To what extent did the music make you feel ,ACTIVE,30MonoWAV/30MonoT2.wav,2,1,4,14,,,,,1,2,18,13,0,6,6,9,,,,,,,,,1,1.5027772260000347,,,118,001,2019_Sep_26_1458,MusicAffectPsychophysiology2019,3.0.5,60.248303622882815,
To what extent did the music make you feel ,SCARED,30MonoWAV/30MonoT2.wav,2,1,4,14,,,,,1,2,18,13,0,7,7,11,,,,,,,,,1,1.0505401700011134,,,118,001,2019_Sep_26_1458,MusicAffectPsychophysiology2019,3.0.5,60.248303622882815,
To what extent did the music make you feel ,TENDER,30MonoWAV/30MonoT2.wav,2,1,4,14,,,,,1,2,18,13,0,8,8,10,,,,,,,,,2,1.3528697519996058,,,118,001,2019_Sep_26_1458,MusicAffectPsychophysiology2019,3.0.5,60.248303622882815,
To what extent did the music make you feel ,GUILTY,30MonoWAV/30MonoT2.wav,2,1,4,14,,,,,1,2,18,13,0,9,9,5,,,,,,,,,1,1.6690135000008013,,,118,001,2019_Sep_26_1458,MusicAffectPsychophysiology2019,3.0.5,60.248303622882815,
To what extent did the music make you feel ,ALERT,30MonoWAV/30MonoT2.wav,2,1,4,14,,,,,1,2,18,13,0,10,10,8,,,,,,,,,1,1.9335923880007613,,,118,001,2019_Sep_26_1458,MusicAffectPsychophysiology2019,3.0.5,60.248303622882815,
To what extent did the music make you feel ,FRUSTRATED,30MonoWAV/30MonoT2.wav,2,1,4,14,,,,,1,2,18,13,0,11,11,3,,,,,,,,,1,4.868390419000207,,,118,001,2019_Sep_26_1458,MusicAffectPsychophysiology2019,3.0.5,60.248303622882815,
,,30MonoWAV/30MonoT2.wav,2,1,4,14,,,,,1,2,18,13,,,,,,,,,,,,,,,,,118,001,2019_Sep_26_1458,MusicAffectPsychophysiology2019,3.0.5,60.248303622882815,
To what extent did the music make you feel ,ANGRY,30MonoWAV/30MonoT1.wav,2,1,4,13,,,,,1,3,19,12,0,0,0,2,,,3,1.416724371998498,3,1.0522405470001104,3,0.6696398109997972,1,1.626481369999965,,,118,001,2019_Sep_26_1458,MusicAffectPsychophysiology2019,3.0.5,60.248303622882815,
To what extent did the music make you feel ,GUILTY,30MonoWAV/30MonoT1.wav,2,1,4,13,,,,,1,3,19,12,0,1,1,5,,,,,,,,,1,0.9855148089991417,,,118,001,2019_Sep_26_1458,MusicAffectPsychophysiology2019,3.0.5,60.248303622882815,
To what extent did the music make you feel ,ASHAMED,30MonoWAV/30MonoT1.wav,2,1,4,13,,,,,1,3,19,12,0,2,2,4,,,,,,,,,1,0.7358040759991127,,,118,001,2019_Sep_26_1458,MusicAffectPsychophysiology2019,3.0.5,60.248303622882815,
To what extent did the music make you feel ,ACTIVE,30MonoWAV/30MonoT1.wav,2,1,4,13,,,,,1,3,19,12,0,3,3,9,,,,,,,,,1,1.6693576430006942,,,118,001,2019_Sep_26_1458,MusicAffectPsychophysiology2019,3.0.5,60.248303622882815,
To what extent did the music make you feel ,SAD,30MonoWAV/30MonoT1.wav,2,1,4,13,,,,,1,3,19,12,0,4,4,0,,,,,,,,,2,1.4518859340005292,,,118,001,2019_Sep_26_1458,MusicAffectPsychophysiology2019,3.0.5,60.248303622882815,
To what extent did the music make you feel ,TENDER,30MonoWAV/30MonoT1.wav,2,1,4,13,,,,,1,3,19,12,0,5,5,10,,,,,,,,,2,0.8537023829994723,,,118,001,2019_Sep_26_1458,MusicAffectPsychophysiology2019,3.0.5,60.248303622882815,
To what extent did the music make you feel ,EXCITED,30MonoWAV/30MonoT1.wav,2,1,4,13,,,,,1,3,19,12,0,6,6,7,,,,,,,,,3,1.485477701999116,,,118,001,2019_Sep_26_1458,MusicAffectPsychophysiology2019,3.0.5,60.248303622882815,
To what extent did the music make you feel ,SCARED,30MonoWAV/30MonoT1.wav,2,1,4,13,,,,,1,3,19,12,0,7,7,11,,,,,,,,,1,1.436055011001372,,,118,001,2019_Sep_26_1458,MusicAffectPsychophysiology2019,3.0.5,60.248303622882815,
To what extent did the music make you feel ,HAPPY,30MonoWAV/30MonoT1.wav,2,1,4,13,,,,,1,3,19,12,0,8,8,6,,,,,,,,,3,1.8354762569997547,,,118,001,2019_Sep_26_1458,MusicAffectPsychophysiology2019,3.0.5,60.248303622882815,
To what extent did the music make you feel ,ANXIOUS ,30MonoWAV/30MonoT1.wav,2,1,4,13,,,,,1,3,19,12,0,9,9,1,,,,,,,,,2,1.8528511860004073,,,118,001,2019_Sep_26_1458,MusicAffectPsychophysiology2019,3.0.5,60.248303622882815,
To what extent did the music make you feel ,FRUSTRATED,30MonoWAV/30MonoT1.wav,2,1,4,13,,,,,1,3,19,12,0,10,10,3,,,,,,,,,1,1.1929324980010279,,,118,001,2019_Sep_26_1458,MusicAffectPsychophysiology2019,3.0.5,60.248303622882815,
To what extent did the music make you feel ,ALERT,30MonoWAV/30MonoT1.wav,2,1,4,13,,,,,1,3,19,12,0,11,11,8,,,,,,,,,2,1.4691264240009332,,,118,001,2019_Sep_26_1458,MusicAffectPsychophysiology2019,3.0.5,60.248303622882815,
,,30MonoWAV/30MonoT1.wav,2,1,4,13,,,,,1,3,19,12,,,,,,,,,,,,,,,,,118,001,2019_Sep_26_1458,MusicAffectPsychophysiology2019,3.0.5,60.248303622882815,
To what extent did the music make you feel ,ACTIVE,30MonoWAV/30MonoS2.wav,1,1,3,10,,,,,1,4,20,9,0,0,0,9,,,2,9.368211246999635,2,1.8007848389988794,2,1.502359477999562,1,2.6032927519991063,,,118,001,2019_Sep_26_1458,MusicAffectPsychophysiology2019,3.0.5,60.248303622882815,
To what extent did the music make you feel ,ANXIOUS ,30MonoWAV/30MonoS2.wav,1,1,3,10,,,,,1,4,20,9,0,1,1,1,,,,,,,,,2,1.0192850029998226,,,118,001,2019_Sep_26_1458,MusicAffectPsychophysiology2019,3.0.5,60.248303622882815,
To what extent did the music make you feel ,GUILTY,30MonoWAV/30MonoS2.wav,1,1,3,10,,,,,1,4,20,9,0,2,2,5,,,,,,,,,2,1.06904283699987,,,118,001,2019_Sep_26_1458,MusicAffectPsychophysiology2019,3.0.5,60.248303622882815,
To what extent did the music make you feel ,TENDER,30MonoWAV/30MonoS2.wav,1,1,3,10,,,,,1,4,20,9,0,3,3,10,,,,,,,,,2,1.0358043240012194,,,118,001,2019_Sep_26_1458,MusicAffectPsychophysiology2019,3.0.5,60.248303622882815,
To what extent did the music make you feel ,FRUSTRATED,30MonoWAV/30MonoS2.wav,1,1,3,10,,,,,1,4,20,9,0,4,4,3,,,,,,,,,1,1.5353910079993511,,,118,001,2019_Sep_26_1458,MusicAffectPsychophysiology2019,3.0.5,60.248303622882815,
To what extent did the music make you feel ,SCARED,30MonoWAV/30MonoS2.wav,1,1,3,10,,,,,1,4,20,9,0,5,5,11,,,,,,,,,1,1.1193344189996424,,,118,001,2019_Sep_26_1458,MusicAffectPsychophysiology2019,3.0.5,60.248303622882815,
To what extent did the music make you feel ,ALERT,30MonoWAV/30MonoS2.wav,1,1,3,10,,,,,1,4,20,9,0,6,6,8,,,,,,,,,1,1.6187953860007838,,,118,001,2019_Sep_26_1458,MusicAffectPsychophysiology2019,3.0.5,60.248303622882815,
To what extent did the music make you feel ,SAD,30MonoWAV/30MonoS2.wav,1,1,3,10,,,,,1,4,20,9,0,7,7,0,,,,,,,,,2,1.9689654869998776,,,118,001,2019_Sep_26_1458,MusicAffectPsychophysiology2019,3.0.5,60.248303622882815,
To what extent did the music make you feel ,HAPPY,30MonoWAV/30MonoS2.wav,1,1,3,10,,,,,1,4,20,9,0,8,8,6,,,,,,,,,2,1.0332252450007218,,,118,001,2019_Sep_26_1458,MusicAffectPsychophysiology2019,3.0.5,60.248303622882815,
To what extent did the music make you feel ,ASHAMED,30MonoWAV/30MonoS2.wav,1,1,3,10,,,,,1,4,20,9,0,9,9,4,,,,,,,,,3,2.653563543999553,,,118,001,2019_Sep_26_1458,MusicAffectPsychophysiology2019,3.0.5,60.248303622882815,
To what extent did the music make you feel ,ANGRY,30MonoWAV/30MonoS2.wav,1,1,3,10,,,,,1,4,20,9,0,10,10,2,,,,,,,,,1,2.3519645600008516,,,118,001,2019_Sep_26_1458,MusicAffectPsychophysiology2019,3.0.5,60.248303622882815,
To what extent did the music make you feel ,EXCITED,30MonoWAV/30MonoS2.wav,1,1,3,10,,,,,1,4,20,9,0,11,11,7,,,,,,,,,1,1.1191686900001514,,,118,001,2019_Sep_26_1458,MusicAffectPsychophysiology2019,3.0.5,60.248303622882815,
,,30MonoWAV/30MonoS2.wav,1,1,3,10,,,,,1,4,20,9,,,,,,,,,,,,,,,,,118,001,2019_Sep_26_1458,MusicAffectPsychophysiology2019,3.0.5,60.248303622882815,
To what extent did the music make you feel ,FRUSTRATED,30MonoWAV/30MonoF2.wav,1,2,2,2,,,,,1,5,21,1,0,0,0,3,,,3,4.017791592999856,2,1.9866055139991659,2,2.0200161289994867,1,2.8773827649984014,,,118,001,2019_Sep_26_1458,MusicAffectPsychophysiology2019,3.0.5,60.248303622882815,
To what extent did the music make you feel ,ANGRY,30MonoWAV/30MonoF2.wav,1,2,2,2,,,,,1,5,21,1,0,1,1,2,,,,,,,,,2,1.3030383410005015,,,118,001,2019_Sep_26_1458,MusicAffectPsychophysiology2019,3.0.5,60.248303622882815,
To what extent did the music make you feel ,ACTIVE,30MonoWAV/30MonoF2.wav,1,2,2,2,,,,,1,5,21,1,0,2,2,9,,,,,,,,,3,1.0498311560004367,,,118,001,2019_Sep_26_1458,MusicAffectPsychophysiology2019,3.0.5,60.248303622882815,
To what extent did the music make you feel ,ANXIOUS ,30MonoWAV/30MonoF2.wav,1,2,2,2,,,,,1,5,21,1,0,3,3,1,,,,,,,,,3,0.9183245579988579,,,118,001,2019_Sep_26_1458,MusicAffectPsychophysiology2019,3.0.5,60.248303622882815,
To what extent did the music make you feel ,SAD,30MonoWAV/30MonoF2.wav,1,2,2,2,,,,,1,5,21,1,0,4,4,0,,,,,,,,,1,2.2355359619996307,,,118,001,2019_Sep_26_1458,MusicAffectPsychophysiology2019,3.0.5,60.248303622882815,
To what extent did the music make you feel ,EXCITED,30MonoWAV/30MonoF2.wav,1,2,2,2,,,,,1,5,21,1,0,5,5,7,,,,,,,,,2,1.4189200480013824,,,118,001,2019_Sep_26_1458,MusicAffectPsychophysiology2019,3.0.5,60.248303622882815,
To what extent did the music make you feel ,TENDER,30MonoWAV/30MonoF2.wav,1,2,2,2,,,,,1,5,21,1,0,6,6,10,,,,,,,,,2,0.835088416999497,,,118,001,2019_Sep_26_1458,MusicAffectPsychophysiology2019,3.0.5,60.248303622882815,
To what extent did the music make you feel ,ALERT,30MonoWAV/30MonoF2.wav,1,2,2,2,,,,,1,5,21,1,0,7,7,8,,,,,,,,,4,1.536632538000049,,,118,001,2019_Sep_26_1458,MusicAffectPsychophysiology2019,3.0.5,60.248303622882815,
To what extent did the music make you feel ,GUILTY,30MonoWAV/30MonoF2.wav,1,2,2,2,,,,,1,5,21,1,0,8,8,5,,,,,,,,,1,2.485391031999825,,,118,001,2019_Sep_26_1458,MusicAffectPsychophysiology2019,3.0.5,60.248303622882815,
To what extent did the music make you feel ,HAPPY,30MonoWAV/30MonoF2.wav,1,2,2,2,,,,,1,5,21,1,0,9,9,6,,,,,,,,,2,1.235435344000507,,,118,001,2019_Sep_26_1458,MusicAffectPsychophysiology2019,3.0.5,60.248303622882815,
To what extent did the music make you feel ,SCARED,30MonoWAV/30MonoF2.wav,1,2,2,2,,,,,1,5,21,1,0,10,10,11,,,,,,,,,3,1.88324506599929,,,118,001,2019_Sep_26_1458,MusicAffectPsychophysiology2019,3.0.5,60.248303622882815,
To what extent did the music make you feel ,ASHAMED,30MonoWAV/30MonoF2.wav,1,2,2,2,,,,,1,5,21,1,0,11,11,4,,,,,,,,,1,1.2683858470009,,,118,001,2019_Sep_26_1458,MusicAffectPsychophysiology2019,3.0.5,60.248303622882815,
,,30MonoWAV/30MonoF2.wav,1,2,2,2,,,,,1,5,21,1,,,,,,,,,,,,,,,,,118,001,2019_Sep_26_1458,MusicAffectPsychophysiology2019,3.0.5,60.248303622882815,
To what extent did the music make you feel ,GUILTY,30MonoWAV/30MonoS1.wav,1,1,3,9,,,,,1,6,22,8,0,0,0,5,,,4,4.651517633999902,4,1.418156325000382,4,1.5166514180000377,1,2.1843106340002123,,,118,001,2019_Sep_26_1458,MusicAffectPsychophysiology2019,3.0.5,60.248303622882815,
To what extent did the music make you feel ,ALERT,30MonoWAV/30MonoS1.wav,1,1,3,9,,,,,1,6,22,8,0,1,1,8,,,,,,,,,2,1.2356341020004038,,,118,001,2019_Sep_26_1458,MusicAffectPsychophysiology2019,3.0.5,60.248303622882815,
To what extent did the music make you feel ,TENDER,30MonoWAV/30MonoS1.wav,1,1,3,9,,,,,1,6,22,8,0,2,2,10,,,,,,,,,2,1.052122094999504,,,118,001,2019_Sep_26_1458,MusicAffectPsychophysiology2019,3.0.5,60.248303622882815,
To what extent did the music make you feel ,ASHAMED,30MonoWAV/30MonoS1.wav,1,1,3,9,,,,,1,6,22,8,0,3,3,4,,,,,,,,,1,1.5192089660013153,,,118,001,2019_Sep_26_1458,MusicAffectPsychophysiology2019,3.0.5,60.248303622882815,
To what extent did the music make you feel ,SAD,30MonoWAV/30MonoS1.wav,1,1,3,9,,,,,1,6,22,8,0,4,4,0,,,,,,,,,1,0.8351957970007788,,,118,001,2019_Sep_26_1458,MusicAffectPsychophysiology2019,3.0.5,60.248303622882815,
To what extent did the music make you feel ,HAPPY,30MonoWAV/30MonoS1.wav,1,1,3,9,,,,,1,6,22,8,0,5,5,6,,,,,,,,,3,1.3017801030000555,,,118,001,2019_Sep_26_1458,MusicAffectPsychophysiology2019,3.0.5,60.248303622882815,
To what extent did the music make you feel ,FRUSTRATED,30MonoWAV/30MonoS1.wav,1,1,3,9,,,,,1,6,22,8,0,6,6,3,,,,,,,,,1,1.0355922580001788,,,118,001,2019_Sep_26_1458,MusicAffectPsychophysiology2019,3.0.5,60.248303622882815,
To what extent did the music make you feel ,SCARED,30MonoWAV/30MonoS1.wav,1,1,3,9,,,,,1,6,22,8,0,7,7,11,,,,,,,,,1,0.7533703720000631,,,118,001,2019_Sep_26_1458,MusicAffectPsychophysiology2019,3.0.5,60.248303622882815,
To what extent did the music make you feel ,ACTIVE,30MonoWAV/30MonoS1.wav,1,1,3,9,,,,,1,6,22,8,0,8,8,9,,,,,,,,,2,1.4517000369996822,,,118,001,2019_Sep_26_1458,MusicAffectPsychophysiology2019,3.0.5,60.248303622882815,
To what extent did the music make you feel ,ANGRY,30MonoWAV/30MonoS1.wav,1,1,3,9,,,,,1,6,22,8,0,9,9,2,,,,,,,,,1,1.6678896199991868,,,118,001,2019_Sep_26_1458,MusicAffectPsychophysiology2019,3.0.5,60.248303622882815,
To what extent did the music make you feel ,EXCITED,30MonoWAV/30MonoS1.wav,1,1,3,9,,,,,1,6,22,8,0,10,10,7,,,,,,,,,2,1.284030659999189,,,118,001,2019_Sep_26_1458,MusicAffectPsychophysiology2019,3.0.5,60.248303622882815,
To what extent did the music make you feel ,ANXIOUS ,30MonoWAV/30MonoS1.wav,1,1,3,9,,,,,1,6,22,8,0,11,11,1,,,,,,,,,2,1.7859671160003927,,,118,001,2019_Sep_26_1458,MusicAffectPsychophysiology2019,3.0.5,60.248303622882815,
,,30MonoWAV/30MonoS1.wav,1,1,3,9,,,,,1,6,22,8,,,,,,,,,,,,,,,,,118,001,2019_Sep_26_1458,MusicAffectPsychophysiology2019,3.0.5,60.248303622882815,
To what extent did the music make you feel ,ANGRY,30MonoWAV/30MonoT3.wav,2,1,4,15,,,,,1,7,23,14,0,0,0,2,,,2,4.4527075900005,2,1.4693359289994987,3,1.5854104410009313,1,2.4650722589994984,,,118,001,2019_Sep_26_1458,MusicAffectPsychophysiology2019,3.0.5,60.248303622882815,
To what extent did the music make you feel ,ANXIOUS ,30MonoWAV/30MonoT3.wav,2,1,4,15,,,,,1,7,23,14,0,1,1,1,,,,,,,,,1,0.8544558059984411,,,118,001,2019_Sep_26_1458,MusicAffectPsychophysiology2019,3.0.5,60.248303622882815,
To what extent did the music make you feel ,ACTIVE,30MonoWAV/30MonoT3.wav,2,1,4,15,,,,,1,7,23,14,0,2,2,9,,,,,,,,,1,0.9494980239996949,,,118,001,2019_Sep_26_1458,MusicAffectPsychophysiology2019,3.0.5,60.248303622882815,
To what extent did the music make you feel ,EXCITED,30MonoWAV/30MonoT3.wav,2,1,4,15,,,,,1,7,23,14,0,3,3,7,,,,,,,,,2,1.4347520980008994,,,118,001,2019_Sep_26_1458,MusicAffectPsychophysiology2019,3.0.5,60.248303622882815,
To what extent did the music make you feel ,FRUSTRATED,30MonoWAV/30MonoT3.wav,2,1,4,15,,,,,1,7,23,14,0,4,4,3,,,,,,,,,1,0.8710760390003998,,,118,001,2019_Sep_26_1458,MusicAffectPsychophysiology2019,3.0.5,60.248303622882815,
To what extent did the music make you feel ,HAPPY,30MonoWAV/30MonoT3.wav,2,1,4,15,,,,,1,7,23,14,0,5,5,6,,,,,,,,,3,1.1852901430011116,,,118,001,2019_Sep_26_1458,MusicAffectPsychophysiology2019,3.0.5,60.248303622882815,
To what extent did the music make you feel ,TENDER,30MonoWAV/30MonoT3.wav,2,1,4,15,,,,,1,7,23,14,0,6,6,10,,,,,,,,,2,1.803070881000167,,,118,001,2019_Sep_26_1458,MusicAffectPsychophysiology2019,3.0.5,60.248303622882815,
To what extent did the music make you feel ,GUILTY,30MonoWAV/30MonoT3.wav,2,1,4,15,,,,,1,7,23,14,0,7,7,5,,,,,,,,,1,1.1511134869997477,,,118,001,2019_Sep_26_1458,MusicAffectPsychophysiology2019,3.0.5,60.248303622882815,
To what extent did the music make you feel ,SAD,30MonoWAV/30MonoT3.wav,2,1,4,15,,,,,1,7,23,14,0,8,8,0,,,,,,,,,1,0.08636786100032623,,,118,001,2019_Sep_26_1458,MusicAffectPsychophysiology2019,3.0.5,60.248303622882815,
To what extent did the music make you feel ,ALERT,30MonoWAV/30MonoT3.wav,2,1,4,15,,,,,1,7,23,14,0,9,9,8,,,,,,,,,1,4.25181302800047,,,118,001,2019_Sep_26_1458,MusicAffectPsychophysiology2019,3.0.5,60.248303622882815,
To what extent did the music make you feel ,SCARED,30MonoWAV/30MonoT3.wav,2,1,4,15,,,,,1,7,23,14,0,10,10,11,,,,,,,,,2,3.0362391700000444,,,118,001,2019_Sep_26_1458,MusicAffectPsychophysiology2019,3.0.5,60.248303622882815,
To what extent did the music make you feel ,ASHAMED,30MonoWAV/30MonoT3.wav,2,1,4,15,,,,,1,7,23,14,0,11,11,4,,,,,,,,,1,0.9533052919996408,,,118,001,2019_Sep_26_1458,MusicAffectPsychophysiology2019,3.0.5,60.248303622882815,
,,30MonoWAV/30MonoT3.wav,2,1,4,15,,,,,1,7,23,14,,,,,,,,,,,,,,,,,118,001,2019_Sep_26_1458,MusicAffectPsychophysiology2019,3.0.5,60.248303622882815,
To what extent did the music make you feel ,SCARED,30MonoWAV/30MonoH2.wav,2,2,1,6,,,,,1,8,24,5,0,0,0,11,,,3,3.7686334360005276,3,1.1694199019984808,3,1.1352511259992752,2,2.1577708660006465,,,118,001,2019_Sep_26_1458,MusicAffectPsychophysiology2019,3.0.5,60.248303622882815,
To what extent did the music make you feel ,SAD,30MonoWAV/30MonoH2.wav,2,2,1,6,,,,,1,8,24,5,0,1,1,0,,,,,,,,,1,1.001762043000781,,,118,001,2019_Sep_26_1458,MusicAffectPsychophysiology2019,3.0.5,60.248303622882815,
To what extent did the music make you feel ,EXCITED,30MonoWAV/30MonoH2.wav,2,2,1,6,,,,,1,8,24,5,0,2,2,7,,,,,,,,,3,1.5334616030013422,,,118,001,2019_Sep_26_1458,MusicAffectPsychophysiology2019,3.0.5,60.248303622882815,
To what extent did the music make you feel ,ALERT,30MonoWAV/30MonoH2.wav,2,2,1,6,,,,,1,8,24,5,0,3,3,8,,,,,,,,,3,1.5528003569997963,,,118,001,2019_Sep_26_1458,MusicAffectPsychophysiology2019,3.0.5,60.248303622882815,
To what extent did the music make you feel ,TENDER,30MonoWAV/30MonoH2.wav,2,2,1,6,,,,,1,8,24,5,0,4,4,10,,,,,,,,,3,0.7697131400000217,,,118,001,2019_Sep_26_1458,MusicAffectPsychophysiology2019,3.0.5,60.248303622882815,
To what extent did the music make you feel ,FRUSTRATED,30MonoWAV/30MonoH2.wav,2,2,1,6,,,,,1,8,24,5,0,5,5,3,,,,,,,,,1,1.4531540740008495,,,118,001,2019_Sep_26_1458,MusicAffectPsychophysiology2019,3.0.5,60.248303622882815,
To what extent did the music make you feel ,ASHAMED,30MonoWAV/30MonoH2.wav,2,2,1,6,,,,,1,8,24,5,0,6,6,4,,,,,,,,,1,1.2161707420000312,,,118,001,2019_Sep_26_1458,MusicAffectPsychophysiology2019,3.0.5,60.248303622882815,
To what extent did the music make you feel ,GUILTY,30MonoWAV/30MonoH2.wav,2,2,1,6,,,,,1,8,24,5,0,7,7,5,,,,,,,,,1,0.7690696270001354,,,118,001,2019_Sep_26_1458,MusicAffectPsychophysiology2019,3.0.5,60.248303622882815,
To what extent did the music make you feel ,ANGRY,30MonoWAV/30MonoH2.wav,2,2,1,6,,,,,1,8,24,5,0,8,8,2,,,,,,,,,1,0.9357478870006162,,,118,001,2019_Sep_26_1458,MusicAffectPsychophysiology2019,3.0.5,60.248303622882815,
To what extent did the music make you feel ,ANXIOUS ,30MonoWAV/30MonoH2.wav,2,2,1,6,,,,,1,8,24,5,0,9,9,1,,,,,,,,,2,1.1530186279996997,,,118,001,2019_Sep_26_1458,MusicAffectPsychophysiology2019,3.0.5,60.248303622882815,
To what extent did the music make you feel ,HAPPY,30MonoWAV/30MonoH2.wav,2,2,1,6,,,,,1,8,24,5,0,10,10,6,,,,,,,,,3,1.4023793140004273,,,118,001,2019_Sep_26_1458,MusicAffectPsychophysiology2019,3.0.5,60.248303622882815,
To what extent did the music make you feel ,ACTIVE,30MonoWAV/30MonoH2.wav,2,2,1,6,,,,,1,8,24,5,0,11,11,9,,,,,,,,,3,1.0187693640000361,,,118,001,2019_Sep_26_1458,MusicAffectPsychophysiology2019,3.0.5,60.248303622882815,
,,30MonoWAV/30MonoH2.wav,2,2,1,6,,,,,1,8,24,5,,,,,,,,,,,,,,,,,118,001,2019_Sep_26_1458,MusicAffectPsychophysiology2019,3.0.5,60.248303622882815,
To what extent did the music make you feel ,SCARED,30MonoWAV/30MonoH1.wav,2,2,1,5,,,,,1,9,25,4,0,0,0,11,,,3,7.051846252999894,3,0.468834147999587,3,0.535123936000673,1,1.5687863149996701,,,118,001,2019_Sep_26_1458,MusicAffectPsychophysiology2019,3.0.5,60.248303622882815,
To what extent did the music make you feel ,ASHAMED,30MonoWAV/30MonoH1.wav,2,2,1,5,,,,,1,9,25,4,0,1,1,4,,,,,,,,,1,0.852511881999817,,,118,001,2019_Sep_26_1458,MusicAffectPsychophysiology2019,3.0.5,60.248303622882815,
To what extent did the music make you feel ,ACTIVE,30MonoWAV/30MonoH1.wav,2,2,1,5,,,,,1,9,25,4,0,2,2,9,,,,,,,,,3,1.2854435720000765,,,118,001,2019_Sep_26_1458,MusicAffectPsychophysiology2019,3.0.5,60.248303622882815,
To what extent did the music make you feel ,ANGRY,30MonoWAV/30MonoH1.wav,2,2,1,5,,,,,1,9,25,4,0,3,3,2,,,,,,,,,1,1.1025144879986328,,,118,001,2019_Sep_26_1458,MusicAffectPsychophysiology2019,3.0.5,60.248303622882815,
To what extent did the music make you feel ,SAD,30MonoWAV/30MonoH1.wav,2,2,1,5,,,,,1,9,25,4,0,4,4,0,,,,,,,,,1,1.117183804000888,,,118,001,2019_Sep_26_1458,MusicAffectPsychophysiology2019,3.0.5,60.248303622882815,
To what extent did the music make you feel ,FRUSTRATED,30MonoWAV/30MonoH1.wav,2,2,1,5,,,,,1,9,25,4,0,5,5,3,,,,,,,,,2,1.7350216300001193,,,118,001,2019_Sep_26_1458,MusicAffectPsychophysiology2019,3.0.5,60.248303622882815,
To what extent did the music make you feel ,GUILTY,30MonoWAV/30MonoH1.wav,2,2,1,5,,,,,1,9,25,4,0,6,6,5,,,,,,,,,1,0.6854635010004131,,,118,001,2019_Sep_26_1458,MusicAffectPsychophysiology2019,3.0.5,60.248303622882815,
To what extent did the music make you feel ,EXCITED,30MonoWAV/30MonoH1.wav,2,2,1,5,,,,,1,9,25,4,0,7,7,7,,,,,,,,,3,1.269563654999729,,,118,001,2019_Sep_26_1458,MusicAffectPsychophysiology2019,3.0.5,60.248303622882815,
To what extent did the music make you feel ,HAPPY,30MonoWAV/30MonoH1.wav,2,2,1,5,,,,,1,9,25,4,0,8,8,6,,,,,,,,,4,0.9030586339995352,,,118,001,2019_Sep_26_1458,MusicAffectPsychophysiology2019,3.0.5,60.248303622882815,
To what extent did the music make you feel ,ANXIOUS ,30MonoWAV/30MonoH1.wav,2,2,1,5,,,,,1,9,25,4,0,9,9,1,,,,,,,,,1,1.2677537479994498,,,118,001,2019_Sep_26_1458,MusicAffectPsychophysiology2019,3.0.5,60.248303622882815,
To what extent did the music make you feel ,TENDER,30MonoWAV/30MonoH1.wav,2,2,1,5,,,,,1,9,25,4,0,10,10,10,,,,,,,,,2,2.1696244169997954,,,118,001,2019_Sep_26_1458,MusicAffectPsychophysiology2019,3.0.5,60.248303622882815,
To what extent did the music make you feel ,ALERT,30MonoWAV/30MonoH1.wav,2,2,1,5,,,,,1,9,25,4,0,11,11,8,,,,,,,,,4,1.6681912770000054,,,118,001,2019_Sep_26_1458,MusicAffectPsychophysiology2019,3.0.5,60.248303622882815,
,,30MonoWAV/30MonoH1.wav,2,2,1,5,,,,,1,9,25,4,,,,,,,,,,,,,,,,,118,001,2019_Sep_26_1458,MusicAffectPsychophysiology2019,3.0.5,60.248303622882815,
To what extent did the music make you feel ,SCARED,30MonoWAV/30MonoH3.wav,2,2,1,7,,,,,1,10,26,6,0,0,0,11,,,3,8.23376669999925,3,1.102218265999909,3,2.3517730599996867,1,1.5097900929995376,,,118,001,2019_Sep_26_1458,MusicAffectPsychophysiology2019,3.0.5,60.248303622882815,
To what extent did the music make you feel ,ANXIOUS ,30MonoWAV/30MonoH3.wav,2,2,1,7,,,,,1,10,26,6,0,1,1,1,,,,,,,,,1,0.6856528080006683,,,118,001,2019_Sep_26_1458,MusicAffectPsychophysiology2019,3.0.5,60.248303622882815,
To what extent did the music make you feel ,HAPPY,30MonoWAV/30MonoH3.wav,2,2,1,7,,,,,1,10,26,6,0,2,2,6,,,,,,,,,4,1.652485324000736,,,118,001,2019_Sep_26_1458,MusicAffectPsychophysiology2019,3.0.5,60.248303622882815,
To what extent did the music make you feel ,GUILTY,30MonoWAV/30MonoH3.wav,2,2,1,7,,,,,1,10,26,6,0,3,3,5,,,,,,,,,1,1.2022340780004015,,,118,001,2019_Sep_26_1458,MusicAffectPsychophysiology2019,3.0.5,60.248303622882815,
To what extent did the music make you feel ,FRUSTRATED,30MonoWAV/30MonoH3.wav,2,2,1,7,,,,,1,10,26,6,0,4,4,3,,,,,,,,,1,0.7864265719999821,,,118,001,2019_Sep_26_1458,MusicAffectPsychophysiology2019,3.0.5,60.248303622882815,
To what extent did the music make you feel ,ANGRY,30MonoWAV/30MonoH3.wav,2,2,1,7,,,,,1,10,26,6,0,5,5,2,,,,,,,,,1,0.7691367469997203,,,118,001,2019_Sep_26_1458,MusicAffectPsychophysiology2019,3.0.5,60.248303622882815,
To what extent did the music make you feel ,ACTIVE,30MonoWAV/30MonoH3.wav,2,2,1,7,,,,,1,10,26,6,0,6,6,9,,,,,,,,,3,1.1860802869996405,,,118,001,2019_Sep_26_1458,MusicAffectPsychophysiology2019,3.0.5,60.248303622882815,
To what extent did the music make you feel ,ASHAMED,30MonoWAV/30MonoH3.wav,2,2,1,7,,,,,1,10,26,6,0,7,7,4,,,,,,,,,1,1.0854997229998844,,,118,001,2019_Sep_26_1458,MusicAffectPsychophysiology2019,3.0.5,60.248303622882815,
To what extent did the music make you feel ,ALERT,30MonoWAV/30MonoH3.wav,2,2,1,7,,,,,1,10,26,6,0,8,8,8,,,,,,,,,3,1.0860937309989822,,,118,001,2019_Sep_26_1458,MusicAffectPsychophysiology2019,3.0.5,60.248303622882815,
To what extent did the music make you feel ,EXCITED,30MonoWAV/30MonoH3.wav,2,2,1,7,,,,,1,10,26,6,0,9,9,7,,,,,,,,,3,1.0356979629996204,,,118,001,2019_Sep_26_1458,MusicAffectPsychophysiology2019,3.0.5,60.248303622882815,
To what extent did the music make you feel ,SAD,30MonoWAV/30MonoH3.wav,2,2,1,7,,,,,1,10,26,6,0,10,10,0,,,,,,,,,1,1.0684793050004373,,,118,001,2019_Sep_26_1458,MusicAffectPsychophysiology2019,3.0.5,60.248303622882815,
To what extent did the music make you feel ,TENDER,30MonoWAV/30MonoH3.wav,2,2,1,7,,,,,1,10,26,6,0,11,11,10,,,,,,,,,2,1.0337170900002093,,,118,001,2019_Sep_26_1458,MusicAffectPsychophysiology2019,3.0.5,60.248303622882815,
,,30MonoWAV/30MonoH3.wav,2,2,1,7,,,,,1,10,26,6,,,,,,,,,,,,,,,,,118,001,2019_Sep_26_1458,MusicAffectPsychophysiology2019,3.0.5,60.248303622882815,
To what extent did the music make you feel ,EXCITED,30MonoWAV/30MonoH4.wav,2,2,1,8,,,,,1,11,27,7,0,0,0,7,,,3,4.202673051999227,3,1.7358585510010016,3,1.4010450780006067,3,1.5200223560004815,,,118,001,2019_Sep_26_1458,MusicAffectPsychophysiology2019,3.0.5,60.248303622882815,
To what extent did the music make you feel ,ASHAMED,30MonoWAV/30MonoH4.wav,2,2,1,8,,,,,1,11,27,7,0,1,1,4,,,,,,,,,1,1.1352902670005278,,,118,001,2019_Sep_26_1458,MusicAffectPsychophysiology2019,3.0.5,60.248303622882815,
To what extent did the music make you feel ,ANGRY,30MonoWAV/30MonoH4.wav,2,2,1,8,,,,,1,11,27,7,0,2,2,2,,,,,,,,,1,0.803251650000675,,,118,001,2019_Sep_26_1458,MusicAffectPsychophysiology2019,3.0.5,60.248303622882815,
To what extent did the music make you feel ,HAPPY,30MonoWAV/30MonoH4.wav,2,2,1,8,,,,,1,11,27,7,0,3,3,6,,,,,,,,,3,1.2005167659990548,,,118,001,2019_Sep_26_1458,MusicAffectPsychophysiology2019,3.0.5,60.248303622882815,
To what extent did the music make you feel ,ALERT,30MonoWAV/30MonoH4.wav,2,2,1,8,,,,,1,11,27,7,0,4,4,8,,,,,,,,,2,1.1834030900008656,,,118,001,2019_Sep_26_1458,MusicAffectPsychophysiology2019,3.0.5,60.248303622882815,
To what extent did the music make you feel ,SCARED,30MonoWAV/30MonoH4.wav,2,2,1,8,,,,,1,11,27,7,0,5,5,11,,,,,,,,,1,1.416589849999582,,,118,001,2019_Sep_26_1458,MusicAffectPsychophysiology2019,3.0.5,60.248303622882815,
To what extent did the music make you feel ,TENDER,30MonoWAV/30MonoH4.wav,2,2,1,8,,,,,1,11,27,7,0,6,6,10,,,,,,,,,2,1.0019069660011155,,,118,001,2019_Sep_26_1458,MusicAffectPsychophysiology2019,3.0.5,60.248303622882815,
To what extent did the music make you feel ,FRUSTRATED,30MonoWAV/30MonoH4.wav,2,2,1,8,,,,,1,11,27,7,0,7,7,3,,,,,,,,,1,0.9336717360001785,,,118,001,2019_Sep_26_1458,MusicAffectPsychophysiology2019,3.0.5,60.248303622882815,
To what extent did the music make you feel ,ACTIVE,30MonoWAV/30MonoH4.wav,2,2,1,8,,,,,1,11,27,7,0,8,8,9,,,,,,,,,2,0.8002022319997195,,,118,001,2019_Sep_26_1458,MusicAffectPsychophysiology2019,3.0.5,60.248303622882815,
To what extent did the music make you feel ,GUILTY,30MonoWAV/30MonoH4.wav,2,2,1,8,,,,,1,11,27,7,0,9,9,5,,,,,,,,,1,1.0002665619995241,,,118,001,2019_Sep_26_1458,MusicAffectPsychophysiology2019,3.0.5,60.248303622882815,
To what extent did the music make you feel ,SAD,30MonoWAV/30MonoH4.wav,2,2,1,8,,,,,1,11,27,7,0,10,10,0,,,,,,,,,1,0.8352304010004445,,,118,001,2019_Sep_26_1458,MusicAffectPsychophysiology2019,3.0.5,60.248303622882815,
To what extent did the music make you feel ,ANXIOUS ,30MonoWAV/30MonoH4.wav,2,2,1,8,,,,,1,11,27,7,0,11,11,1,,,,,,,,,2,1.4189345449995017,,,118,001,2019_Sep_26_1458,MusicAffectPsychophysiology2019,3.0.5,60.248303622882815,
,,30MonoWAV/30MonoH4.wav,2,2,1,8,,,,,1,11,27,7,,,,,,,,,,,,,,,,,118,001,2019_Sep_26_1458,MusicAffectPsychophysiology2019,3.0.5,60.248303622882815,
To what extent did the music make you feel ,SAD,30MonoWAV/30MonoF1.wav,1,2,2,1,,,,,1,12,28,0,0,0,0,0,,,3,1.9019518510012858,2,2.0686095580003894,2,1.885136570999748,1,1.9303098660002433,,,118,001,2019_Sep_26_1458,MusicAffectPsychophysiology2019,3.0.5,60.248303622882815,
To what extent did the music make you feel ,EXCITED,30MonoWAV/30MonoF1.wav,1,2,2,1,,,,,1,12,28,0,0,1,1,7,,,,,,,,,2,2.219271461999597,,,118,001,2019_Sep_26_1458,MusicAffectPsychophysiology2019,3.0.5,60.248303622882815,
To what extent did the music make you feel ,ASHAMED,30MonoWAV/30MonoF1.wav,1,2,2,1,,,,,1,12,28,0,0,2,2,4,,,,,,,,,2,1.1688666170011857,,,118,001,2019_Sep_26_1458,MusicAffectPsychophysiology2019,3.0.5,60.248303622882815,
To what extent did the music make you feel ,GUILTY,30MonoWAV/30MonoF1.wav,1,2,2,1,,,,,1,12,28,0,0,3,3,5,,,,,,,,,3,1.4197728880008071,,,118,001,2019_Sep_26_1458,MusicAffectPsychophysiology2019,3.0.5,60.248303622882815,
To what extent did the music make you feel ,SCARED,30MonoWAV/30MonoF1.wav,1,2,2,1,,,,,1,12,28,0,0,4,4,11,,,,,,,,,3,1.2868974850007362,,,118,001,2019_Sep_26_1458,MusicAffectPsychophysiology2019,3.0.5,60.248303622882815,
To what extent did the music make you feel ,FRUSTRATED,30MonoWAV/30MonoF1.wav,1,2,2,1,,,,,1,12,28,0,0,5,5,3,,,,,,,,,1,1.494876917999136,,,118,001,2019_Sep_26_1458,MusicAffectPsychophysiology2019,3.0.5,60.248303622882815,
To what extent did the music make you feel ,TENDER,30MonoWAV/30MonoF1.wav,1,2,2,1,,,,,1,12,28,0,0,6,6,10,,,,,,,,,3,1.2360641049999685,,,118,001,2019_Sep_26_1458,MusicAffectPsychophysiology2019,3.0.5,60.248303622882815,
To what extent did the music make you feel ,ALERT,30MonoWAV/30MonoF1.wav,1,2,2,1,,,,,1,12,28,0,0,7,7,8,,,,,,,,,4,1.4525797799997235,,,118,001,2019_Sep_26_1458,MusicAffectPsychophysiology2019,3.0.5,60.248303622882815,
To what extent did the music make you feel ,ACTIVE,30MonoWAV/30MonoF1.wav,1,2,2,1,,,,,1,12,28,0,0,8,8,9,,,,,,,,,3,2.153166381000119,,,118,001,2019_Sep_26_1458,MusicAffectPsychophysiology2019,3.0.5,60.248303622882815,
To what extent did the music make you feel ,ANXIOUS ,30MonoWAV/30MonoF1.wav,1,2,2,1,,,,,1,12,28,0,0,9,9,1,,,,,,,,,2,1.2168929700001172,,,118,001,2019_Sep_26_1458,MusicAffectPsychophysiology2019,3.0.5,60.248303622882815,
To what extent did the music make you feel ,ANGRY,30MonoWAV/30MonoF1.wav,1,2,2,1,,,,,1,12,28,0,0,10,10,2,,,,,,,,,1,1.2345445249993645,,,118,001,2019_Sep_26_1458,MusicAffectPsychophysiology2019,3.0.5,60.248303622882815,
To what extent did the music make you feel ,HAPPY,30MonoWAV/30MonoF1.wav,1,2,2,1,,,,,1,12,28,0,0,11,11,6,,,,,,,,,1,1.319634388999475,,,118,001,2019_Sep_26_1458,MusicAffectPsychophysiology2019,3.0.5,60.248303622882815,
,,30MonoWAV/30MonoF1.wav,1,2,2,1,,,,,1,12,28,0,,,,,,,,,,,,,,,,,118,001,2019_Sep_26_1458,MusicAffectPsychophysiology2019,3.0.5,60.248303622882815,
To what extent did the music make you feel ,ANXIOUS ,30MonoWAV/30MonoS4.wav,1,1,3,12,,,,,1,13,29,11,0,0,0,1,,,1,3.8691869089998363,1,1.9533337659995595,2,2.134866387999864,2,1.4553169859991613,,,118,001,2019_Sep_26_1458,MusicAffectPsychophysiology2019,3.0.5,60.248303622882815,
To what extent did the music make you feel ,TENDER,30MonoWAV/30MonoS4.wav,1,1,3,12,,,,,1,13,29,11,0,1,1,10,,,,,,,,,3,1.2669229219991394,,,118,001,2019_Sep_26_1458,MusicAffectPsychophysiology2019,3.0.5,60.248303622882815,
To what extent did the music make you feel ,SCARED,30MonoWAV/30MonoS4.wav,1,1,3,12,,,,,1,13,29,11,0,2,2,11,,,,,,,,,2,1.8170548480011348,,,118,001,2019_Sep_26_1458,MusicAffectPsychophysiology2019,3.0.5,60.248303622882815,
To what extent did the music make you feel ,GUILTY,30MonoWAV/30MonoS4.wav,1,1,3,12,,,,,1,13,29,11,0,3,3,5,,,,,,,,,2,1.1191863040003227,,,118,001,2019_Sep_26_1458,MusicAffectPsychophysiology2019,3.0.5,60.248303622882815,
To what extent did the music make you feel ,ALERT,30MonoWAV/30MonoS4.wav,1,1,3,12,,,,,1,13,29,11,0,4,4,8,,,,,,,,,2,2.751691359999313,,,118,001,2019_Sep_26_1458,MusicAffectPsychophysiology2019,3.0.5,60.248303622882815,
To what extent did the music make you feel ,SAD,30MonoWAV/30MonoS4.wav,1,1,3,12,,,,,1,13,29,11,0,5,5,0,,,,,,,,,4,1.584928846999901,,,118,001,2019_Sep_26_1458,MusicAffectPsychophysiology2019,3.0.5,60.248303622882815,
To what extent did the music make you feel ,ANGRY,30MonoWAV/30MonoS4.wav,1,1,3,12,,,,,1,13,29,11,0,6,6,2,,,,,,,,,1,1.26635703699867,,,118,001,2019_Sep_26_1458,MusicAffectPsychophysiology2019,3.0.5,60.248303622882815,
To what extent did the music make you feel ,ACTIVE,30MonoWAV/30MonoS4.wav,1,1,3,12,,,,,1,13,29,11,0,7,7,9,,,,,,,,,1,1.1019061760016484,,,118,001,2019_Sep_26_1458,MusicAffectPsychophysiology2019,3.0.5,60.248303622882815,
To what extent did the music make you feel ,ASHAMED,30MonoWAV/30MonoS4.wav,1,1,3,12,,,,,1,13,29,11,0,8,8,4,,,,,,,,,1,1.6358268150015647,,,118,001,2019_Sep_26_1458,MusicAffectPsychophysiology2019,3.0.5,60.248303622882815,
To what extent did the music make you feel ,FRUSTRATED,30MonoWAV/30MonoS4.wav,1,1,3,12,,,,,1,13,29,11,0,9,9,3,,,,,,,,,1,1.052925709000192,,,118,001,2019_Sep_26_1458,MusicAffectPsychophysiology2019,3.0.5,60.248303622882815,
To what extent did the music make you feel ,EXCITED,30MonoWAV/30MonoS4.wav,1,1,3,12,,,,,1,13,29,11,0,10,10,7,,,,,,,,,1,1.0355860119998397,,,118,001,2019_Sep_26_1458,MusicAffectPsychophysiology2019,3.0.5,60.248303622882815,
To what extent did the music make you feel ,HAPPY,30MonoWAV/30MonoS4.wav,1,1,3,12,,,,,1,13,29,11,0,11,11,6,,,,,,,,,1,0.919492414999695,,,118,001,2019_Sep_26_1458,MusicAffectPsychophysiology2019,3.0.5,60.248303622882815,
,,30MonoWAV/30MonoS4.wav,1,1,3,12,,,,,1,13,29,11,,,,,,,,,,,,,,,,,118,001,2019_Sep_26_1458,MusicAffectPsychophysiology2019,3.0.5,60.248303622882815,
To what extent did the music make you feel ,FRUSTRATED,30MonoWAV/30MonoT4.wav,2,1,4,16,,,,,1,14,30,15,0,0,0,3,,,3,2.950752402000944,3,1.5018860929994844,3,0.5523993589995371,1,1.6214089269997203,,,118,001,2019_Sep_26_1458,MusicAffectPsychophysiology2019,3.0.5,60.248303622882815,
To what extent did the music make you feel ,TENDER,30MonoWAV/30MonoT4.wav,2,1,4,16,,,,,1,14,30,15,0,1,1,10,,,,,,,,,2,1.1362681949995022,,,118,001,2019_Sep_26_1458,MusicAffectPsychophysiology2019,3.0.5,60.248303622882815,
To what extent did the music make you feel ,HAPPY,30MonoWAV/30MonoT4.wav,2,1,4,16,,,,,1,14,30,15,0,2,2,6,,,,,,,,,3,1.0520253659997252,,,118,001,2019_Sep_26_1458,MusicAffectPsychophysiology2019,3.0.5,60.248303622882815,
To what extent did the music make you feel ,SCARED,30MonoWAV/30MonoT4.wav,2,1,4,16,,,,,1,14,30,15,0,3,3,11,,,,,,,,,1,1.1350138200014044,,,118,001,2019_Sep_26_1458,MusicAffectPsychophysiology2019,3.0.5,60.248303622882815,
To what extent did the music make you feel ,GUILTY,30MonoWAV/30MonoT4.wav,2,1,4,16,,,,,1,14,30,15,0,4,4,5,,,,,,,,,1,1.0855365420011367,,,118,001,2019_Sep_26_1458,MusicAffectPsychophysiology2019,3.0.5,60.248303622882815,
To what extent did the music make you feel ,ASHAMED,30MonoWAV/30MonoT4.wav,2,1,4,16,,,,,1,14,30,15,0,5,5,4,,,,,,,,,2,1.569788871000128,,,118,001,2019_Sep_26_1458,MusicAffectPsychophysiology2019,3.0.5,60.248303622882815,
To what extent did the music make you feel ,ANXIOUS ,30MonoWAV/30MonoT4.wav,2,1,4,16,,,,,1,14,30,15,0,6,6,1,,,,,,,,,1,1.3354966940005397,,,118,001,2019_Sep_26_1458,MusicAffectPsychophysiology2019,3.0.5,60.248303622882815,
To what extent did the music make you feel ,EXCITED,30MonoWAV/30MonoT4.wav,2,1,4,16,,,,,1,14,30,15,0,7,7,7,,,,,,,,,3,1.1690656430000672,,,118,001,2019_Sep_26_1458,MusicAffectPsychophysiology2019,3.0.5,60.248303622882815,
To what extent did the music make you feel ,ALERT,30MonoWAV/30MonoT4.wav,2,1,4,16,,,,,1,14,30,15,0,8,8,8,,,,,,,,,2,1.352940774999297,,,118,001,2019_Sep_26_1458,MusicAffectPsychophysiology2019,3.0.5,60.248303622882815,
To what extent did the music make you feel ,ANGRY,30MonoWAV/30MonoT4.wav,2,1,4,16,,,,,1,14,30,15,0,9,9,2,,,,,,,,,1,1.1032057329994132,,,118,001,2019_Sep_26_1458,MusicAffectPsychophysiology2019,3.0.5,60.248303622882815,
To what extent did the music make you feel ,SAD,30MonoWAV/30MonoT4.wav,2,1,4,16,,,,,1,14,30,15,0,10,10,0,,,,,,,,,1,1.1184283879993018,,,118,001,2019_Sep_26_1458,MusicAffectPsychophysiology2019,3.0.5,60.248303622882815,
To what extent did the music make you feel ,ACTIVE,30MonoWAV/30MonoT4.wav,2,1,4,16,,,,,1,14,30,15,0,11,11,9,,,,,,,,,3,1.5351610199995775,,,118,001,2019_Sep_26_1458,MusicAffectPsychophysiology2019,3.0.5,60.248303622882815,
,,30MonoWAV/30MonoT4.wav,2,1,4,16,,,,,1,14,30,15,,,,,,,,,,,,,,,,,118,001,2019_Sep_26_1458,MusicAffectPsychophysiology2019,3.0.5,60.248303622882815,
To what extent did the music make you feel ,ACTIVE,30MonoWAV/30MonoS3.wav,1,1,3,11,,,,,1,15,31,10,0,0,0,9,,,2,7.884942421000233,2,1.7026641930006008,2,1.136882274000527,2,1.169746016001227,,,118,001,2019_Sep_26_1458,MusicAffectPsychophysiology2019,3.0.5,60.248303622882815,
To what extent did the music make you feel ,EXCITED,30MonoWAV/30MonoS3.wav,1,1,3,11,,,,,1,15,31,10,0,1,1,7,,,,,,,,,1,2.5182888349991117,,,118,001,2019_Sep_26_1458,MusicAffectPsychophysiology2019,3.0.5,60.248303622882815,
To what extent did the music make you feel ,ASHAMED,30MonoWAV/30MonoS3.wav,1,1,3,11,,,,,1,15,31,10,0,2,2,4,,,,,,,,,2,2.0679997530005494,,,118,001,2019_Sep_26_1458,MusicAffectPsychophysiology2019,3.0.5,60.248303622882815,
To what extent did the music make you feel ,ALERT,30MonoWAV/30MonoS3.wav,1,1,3,11,,,,,1,15,31,10,0,3,3,8,,,,,,,,,1,0.9528786000009859,,,118,001,2019_Sep_26_1458,MusicAffectPsychophysiology2019,3.0.5,60.248303622882815,
To what extent did the music make you feel ,HAPPY,30MonoWAV/30MonoS3.wav,1,1,3,11,,,,,1,15,31,10,0,4,4,6,,,,,,,,,2,1.052585593999538,,,118,001,2019_Sep_26_1458,MusicAffectPsychophysiology2019,3.0.5,60.248303622882815,
To what extent did the music make you feel ,TENDER,30MonoWAV/30MonoS3.wav,1,1,3,11,,,,,1,15,31,10,0,5,5,10,,,,,,,,,2,0.7834884510011761,,,118,001,2019_Sep_26_1458,MusicAffectPsychophysiology2019,3.0.5,60.248303622882815,
To what extent did the music make you feel ,GUILTY,30MonoWAV/30MonoS3.wav,1,1,3,11,,,,,1,15,31,10,0,6,6,5,,,,,,,,,2,1.0688661299991509,,,118,001,2019_Sep_26_1458,MusicAffectPsychophysiology2019,3.0.5,60.248303622882815,
To what extent did the music make you feel ,FRUSTRATED,30MonoWAV/30MonoS3.wav,1,1,3,11,,,,,1,15,31,10,0,7,7,3,,,,,,,,,1,1.532580577999397,,,118,001,2019_Sep_26_1458,MusicAffectPsychophysiology2019,3.0.5,60.248303622882815,
To what extent did the music make you feel ,ANGRY,30MonoWAV/30MonoS3.wav,1,1,3,11,,,,,1,15,31,10,0,8,8,2,,,,,,,,,1,0.9851050380002562,,,118,001,2019_Sep_26_1458,MusicAffectPsychophysiology2019,3.0.5,60.248303622882815,
To what extent did the music make you feel ,SCARED,30MonoWAV/30MonoS3.wav,1,1,3,11,,,,,1,15,31,10,0,9,9,11,,,,,,,,,2,1.0362403660001291,,,118,001,2019_Sep_26_1458,MusicAffectPsychophysiology2019,3.0.5,60.248303622882815,
To what extent did the music make you feel ,ANXIOUS ,30MonoWAV/30MonoS3.wav,1,1,3,11,,,,,1,15,31,10,0,10,10,1,,,,,,,,,2,0.9027033140009735,,,118,001,2019_Sep_26_1458,MusicAffectPsychophysiology2019,3.0.5,60.248303622882815,
To what extent did the music make you feel ,SAD,30MonoWAV/30MonoS3.wav,1,1,3,11,,,,,1,15,31,10,0,11,11,0,,,,,,,,,2,1.6854567780010257,,,118,001,2019_Sep_26_1458,MusicAffectPsychophysiology2019,3.0.5,60.248303622882815,
,,30MonoWAV/30MonoS3.wav,1,1,3,11,,,,,1,15,31,10,,,,,,,,,,,,,,,,,118,001,2019_Sep_26_1458,MusicAffectPsychophysiology2019,3.0.5,60.248303622882815,
,,,,,,,,,,,,,,,,,,,,,,,,,,,,,space,7.938362681999934,118,001,2019_Sep_26_1458,MusicAffectPsychophysiology2019,3.0.5,60.248303622882815,
