Instruction,Word,song,valence,arousal,affectcat,songmark,pracwords.thisRepN,pracwords.thisTrialN,pracwords.thisN,pracwords.thisIndex,songtrials.thisRepN,songtrials.thisTrialN,songtrials.thisN,songtrials.thisIndex,words.thisRepN,words.thisTrialN,words.thisN,words.thisIndex,begin.keys,begin.rt,arousalkey.keys,arousalkey.rt,valencekey.keys,valencekey.rt,likekey.keys,likekey.rt,WordResponse.keys,WordResponse.rt,participant,session,date,expName,psychopyVersion,frameRate,
,,,,,,,,,,,,,,,,,,,space,14.201635025998257,,,,,,,,,119,001,2019_Sep_26_1712,MusicAffectPsychophysiology2019,3.0.5,29.984772563019227,
,,,,,,,,,,,,,,,,,,,,,4,16.081830131999595,,,,,,,119,001,2019_Sep_26_1712,MusicAffectPsychophysiology2019,3.0.5,29.984772563019227,
,,,,,,,,,,,,,,,,,,,,,,,5,4.119227989001956,,,,,119,001,2019_Sep_26_1712,MusicAffectPsychophysiology2019,3.0.5,29.984772563019227,
,,,,,,,,,,,,,,,,,,,,,,,,,4,3.3516380170003686,,,119,001,2019_Sep_26_1712,MusicAffectPsychophysiology2019,3.0.5,29.984772563019227,
To what extent did the music make you feel ,ACTIVE,,,,,,0,0,0,9,,,,,,,,,,,,,,,,,4,5.525720582998474,119,001,2019_Sep_26_1712,MusicAffectPsychophysiology2019,3.0.5,29.984772563019227,
To what extent did the music make you feel ,SCARED,,,,,,0,1,1,11,,,,,,,,,,,,,,,,,1,3.41898184999809,119,001,2019_Sep_26_1712,MusicAffectPsychophysiology2019,3.0.5,29.984772563019227,
To what extent did the music make you feel ,SAD,,,,,,0,2,2,0,,,,,,,,,,,,,,,,,1,2.3185886859973834,119,001,2019_Sep_26_1712,MusicAffectPsychophysiology2019,3.0.5,29.984772563019227,
To what extent did the music make you feel ,EXCITED,,,,,,0,3,3,7,,,,,,,,,,,,,,,,,3,6.051783959999739,119,001,2019_Sep_26_1712,MusicAffectPsychophysiology2019,3.0.5,29.984772563019227,
To what extent did the music make you feel ,ALERT,,,,,,0,4,4,8,,,,,,,,,,,,,,,,,1,3.219078709000314,119,001,2019_Sep_26_1712,MusicAffectPsychophysiology2019,3.0.5,29.984772563019227,
To what extent did the music make you feel ,TENDER,,,,,,0,5,5,10,,,,,,,,,,,,,,,,,3,4.918846102998941,119,001,2019_Sep_26_1712,MusicAffectPsychophysiology2019,3.0.5,29.984772563019227,
To what extent did the music make you feel ,HAPPY,,,,,,0,6,6,6,,,,,,,,,,,,,,,,,4,3.2683972360027838,119,001,2019_Sep_26_1712,MusicAffectPsychophysiology2019,3.0.5,29.984772563019227,
To what extent did the music make you feel ,GUILTY,,,,,,0,7,7,5,,,,,,,,,,,,,,,,,1,2.502806017000694,119,001,2019_Sep_26_1712,MusicAffectPsychophysiology2019,3.0.5,29.984772563019227,
To what extent did the music make you feel ,ASHAMED,,,,,,0,8,8,4,,,,,,,,,,,,,,,,,1,2.253053116000956,119,001,2019_Sep_26_1712,MusicAffectPsychophysiology2019,3.0.5,29.984772563019227,
To what extent did the music make you feel ,ANXIOUS ,,,,,,0,9,9,1,,,,,,,,,,,,,,,,,1,1.6180326079993392,119,001,2019_Sep_26_1712,MusicAffectPsychophysiology2019,3.0.5,29.984772563019227,
To what extent did the music make you feel ,FRUSTRATED,,,,,,0,10,10,3,,,,,,,,,,,,,,,,,1,10.952515413002402,119,001,2019_Sep_26_1712,MusicAffectPsychophysiology2019,3.0.5,29.984772563019227,
To what extent did the music make you feel ,ANGRY,,,,,,0,11,11,2,,,,,,,,,,,,,,,,,1,2.0193157239991706,119,001,2019_Sep_26_1712,MusicAffectPsychophysiology2019,3.0.5,29.984772563019227,
To what extent did the music make you feel ,GUILTY,30MonoWAV/30MonoH4.wav,2,2,1,8,,,,,0,0,0,7,0,0,0,5,,,4,6.51941203199749,5,2.5520903120013827,3,5.150086925001233,1,4.082410969000193,119,001,2019_Sep_26_1712,MusicAffectPsychophysiology2019,3.0.5,29.984772563019227,
To what extent did the music make you feel ,EXCITED,30MonoWAV/30MonoH4.wav,2,2,1,8,,,,,0,0,0,7,0,1,1,7,,,,,,,,,4,2.517021179999574,119,001,2019_Sep_26_1712,MusicAffectPsychophysiology2019,3.0.5,29.984772563019227,
To what extent did the music make you feel ,ANXIOUS ,30MonoWAV/30MonoH4.wav,2,2,1,8,,,,,0,0,0,7,0,2,2,1,,,,,,,,,1,3.335192016002111,119,001,2019_Sep_26_1712,MusicAffectPsychophysiology2019,3.0.5,29.984772563019227,
To what extent did the music make you feel ,ANGRY,30MonoWAV/30MonoH4.wav,2,2,1,8,,,,,0,0,0,7,0,3,3,2,,,,,,,,,1,3.2527481649995025,119,001,2019_Sep_26_1712,MusicAffectPsychophysiology2019,3.0.5,29.984772563019227,
To what extent did the music make you feel ,ALERT,30MonoWAV/30MonoH4.wav,2,2,1,8,,,,,0,0,0,7,0,4,4,8,,,,,,,,,1,10.118835574001423,119,001,2019_Sep_26_1712,MusicAffectPsychophysiology2019,3.0.5,29.984772563019227,
To what extent did the music make you feel ,SAD,30MonoWAV/30MonoH4.wav,2,2,1,8,,,,,0,0,0,7,0,5,5,0,,,,,,,,,1,1.2533728540001903,119,001,2019_Sep_26_1712,MusicAffectPsychophysiology2019,3.0.5,29.984772563019227,
To what extent did the music make you feel ,SCARED,30MonoWAV/30MonoH4.wav,2,2,1,8,,,,,0,0,0,7,0,6,6,11,,,,,,,,,1,1.5023954050011525,119,001,2019_Sep_26_1712,MusicAffectPsychophysiology2019,3.0.5,29.984772563019227,
To what extent did the music make you feel ,ACTIVE,30MonoWAV/30MonoH4.wav,2,2,1,8,,,,,0,0,0,7,0,7,7,9,,,,,,,,,5,3.417552858001727,119,001,2019_Sep_26_1712,MusicAffectPsychophysiology2019,3.0.5,29.984772563019227,
To what extent did the music make you feel ,FRUSTRATED,30MonoWAV/30MonoH4.wav,2,2,1,8,,,,,0,0,0,7,0,8,8,3,,,,,,,,,1,104.40673506999883,119,001,2019_Sep_26_1712,MusicAffectPsychophysiology2019,3.0.5,29.984772563019227,
To what extent did the music make you feel ,HAPPY,30MonoWAV/30MonoH4.wav,2,2,1,8,,,,,0,0,0,7,0,9,9,6,,,,,,,,,4,1.90185824999935,119,001,2019_Sep_26_1712,MusicAffectPsychophysiology2019,3.0.5,29.984772563019227,
To what extent did the music make you feel ,ASHAMED,30MonoWAV/30MonoH4.wav,2,2,1,8,,,,,0,0,0,7,0,10,10,4,,,,,,,,,1,1.63312999000118,119,001,2019_Sep_26_1712,MusicAffectPsychophysiology2019,3.0.5,29.984772563019227,
To what extent did the music make you feel ,TENDER,30MonoWAV/30MonoH4.wav,2,2,1,8,,,,,0,0,0,7,0,11,11,10,,,,,,,,,1,2.7342181589992833,119,001,2019_Sep_26_1712,MusicAffectPsychophysiology2019,3.0.5,29.984772563019227,
,,30MonoWAV/30MonoH4.wav,2,2,1,8,,,,,0,0,0,7,,,,,,,,,,,,,,,119,001,2019_Sep_26_1712,MusicAffectPsychophysiology2019,3.0.5,29.984772563019227,
To what extent did the music make you feel ,ANGRY,30MonoWAV/30MonoF4.wav,1,2,2,4,,,,,0,1,1,3,0,0,0,2,,,3,5.400619199001085,2,8.485172429001977,2,3.2852573589989333,2,2.1944198290002532,119,001,2019_Sep_26_1712,MusicAffectPsychophysiology2019,3.0.5,29.984772563019227,
To what extent did the music make you feel ,TENDER,30MonoWAV/30MonoF4.wav,1,2,2,4,,,,,0,1,1,3,0,1,1,10,,,,,,,,,3,2.8853959850021056,119,001,2019_Sep_26_1712,MusicAffectPsychophysiology2019,3.0.5,29.984772563019227,
To what extent did the music make you feel ,FRUSTRATED,30MonoWAV/30MonoF4.wav,1,2,2,4,,,,,0,1,1,3,0,2,2,3,,,,,,,,,2,2.161183180996886,119,001,2019_Sep_26_1712,MusicAffectPsychophysiology2019,3.0.5,29.984772563019227,
To what extent did the music make you feel ,ANXIOUS ,30MonoWAV/30MonoF4.wav,1,2,2,4,,,,,0,1,1,3,0,3,3,1,,,,,,,,,1,1.7530635050025012,119,001,2019_Sep_26_1712,MusicAffectPsychophysiology2019,3.0.5,29.984772563019227,
To what extent did the music make you feel ,SAD,30MonoWAV/30MonoF4.wav,1,2,2,4,,,,,0,1,1,3,0,4,4,0,,,,,,,,,4,5.768963590999192,119,001,2019_Sep_26_1712,MusicAffectPsychophysiology2019,3.0.5,29.984772563019227,
To what extent did the music make you feel ,ALERT,30MonoWAV/30MonoF4.wav,1,2,2,4,,,,,0,1,1,3,0,5,5,8,,,,,,,,,5,6.384537828998873,119,001,2019_Sep_26_1712,MusicAffectPsychophysiology2019,3.0.5,29.984772563019227,
To what extent did the music make you feel ,ASHAMED,30MonoWAV/30MonoF4.wav,1,2,2,4,,,,,0,1,1,3,0,6,6,4,,,,,,,,,2,2.3529869739977585,119,001,2019_Sep_26_1712,MusicAffectPsychophysiology2019,3.0.5,29.984772563019227,
To what extent did the music make you feel ,EXCITED,30MonoWAV/30MonoF4.wav,1,2,2,4,,,,,0,1,1,3,0,7,7,7,,,,,,,,,2,5.70127451299777,119,001,2019_Sep_26_1712,MusicAffectPsychophysiology2019,3.0.5,29.984772563019227,
To what extent did the music make you feel ,ACTIVE,30MonoWAV/30MonoF4.wav,1,2,2,4,,,,,0,1,1,3,0,8,8,9,,,,,,,,,2,4.382741026998701,119,001,2019_Sep_26_1712,MusicAffectPsychophysiology2019,3.0.5,29.984772563019227,
To what extent did the music make you feel ,HAPPY,30MonoWAV/30MonoF4.wav,1,2,2,4,,,,,0,1,1,3,0,9,9,6,,,,,,,,,1,1.201481000000058,119,001,2019_Sep_26_1712,MusicAffectPsychophysiology2019,3.0.5,29.984772563019227,
To what extent did the music make you feel ,SCARED,30MonoWAV/30MonoF4.wav,1,2,2,4,,,,,0,1,1,3,0,10,10,11,,,,,,,,,5,3.7190110930023366,119,001,2019_Sep_26_1712,MusicAffectPsychophysiology2019,3.0.5,29.984772563019227,
To what extent did the music make you feel ,GUILTY,30MonoWAV/30MonoF4.wav,1,2,2,4,,,,,0,1,1,3,0,11,11,5,,,,,,,,,3,2.752449023999361,119,001,2019_Sep_26_1712,MusicAffectPsychophysiology2019,3.0.5,29.984772563019227,
,,30MonoWAV/30MonoF4.wav,1,2,2,4,,,,,0,1,1,3,,,,,,,,,,,,,,,119,001,2019_Sep_26_1712,MusicAffectPsychophysiology2019,3.0.5,29.984772563019227,
To what extent did the music make you feel ,ACTIVE,30MonoWAV/30MonoT2.wav,2,1,4,14,,,,,0,2,2,13,0,0,0,9,,,3,7.235621415999049,3,3.0513793129975966,4,4.649841086000379,2,4.752746030000708,119,001,2019_Sep_26_1712,MusicAffectPsychophysiology2019,3.0.5,29.984772563019227,
To what extent did the music make you feel ,HAPPY,30MonoWAV/30MonoT2.wav,2,1,4,14,,,,,0,2,2,13,0,1,1,6,,,,,,,,,3,2.3703346520014748,119,001,2019_Sep_26_1712,MusicAffectPsychophysiology2019,3.0.5,29.984772563019227,
To what extent did the music make you feel ,SCARED,30MonoWAV/30MonoT2.wav,2,1,4,14,,,,,0,2,2,13,0,2,2,11,,,,,,,,,1,1.7538020479987608,119,001,2019_Sep_26_1712,MusicAffectPsychophysiology2019,3.0.5,29.984772563019227,
To what extent did the music make you feel ,SAD,30MonoWAV/30MonoT2.wav,2,1,4,14,,,,,0,2,2,13,0,3,3,0,,,,,,,,,3,4.284671885001444,119,001,2019_Sep_26_1712,MusicAffectPsychophysiology2019,3.0.5,29.984772563019227,
To what extent did the music make you feel ,ASHAMED,30MonoWAV/30MonoT2.wav,2,1,4,14,,,,,0,2,2,13,0,4,4,4,,,,,,,,,1,3.9690743570026825,119,001,2019_Sep_26_1712,MusicAffectPsychophysiology2019,3.0.5,29.984772563019227,
To what extent did the music make you feel ,ANXIOUS ,30MonoWAV/30MonoT2.wav,2,1,4,14,,,,,0,2,2,13,0,5,5,1,,,,,,,,,1,2.1027208209998207,119,001,2019_Sep_26_1712,MusicAffectPsychophysiology2019,3.0.5,29.984772563019227,
To what extent did the music make you feel ,GUILTY,30MonoWAV/30MonoT2.wav,2,1,4,14,,,,,0,2,2,13,0,6,6,5,,,,,,,,,2,4.151852376999159,119,001,2019_Sep_26_1712,MusicAffectPsychophysiology2019,3.0.5,29.984772563019227,
To what extent did the music make you feel ,TENDER,30MonoWAV/30MonoT2.wav,2,1,4,14,,,,,0,2,2,13,0,7,7,10,,,,,,,,,2,3.451747464998334,119,001,2019_Sep_26_1712,MusicAffectPsychophysiology2019,3.0.5,29.984772563019227,
To what extent did the music make you feel ,ALERT,30MonoWAV/30MonoT2.wav,2,1,4,14,,,,,0,2,2,13,0,8,8,8,,,,,,,,,1,1.5362429570013774,119,001,2019_Sep_26_1712,MusicAffectPsychophysiology2019,3.0.5,29.984772563019227,
To what extent did the music make you feel ,EXCITED,30MonoWAV/30MonoT2.wav,2,1,4,14,,,,,0,2,2,13,0,9,9,7,,,,,,,,,3,6.868305287996918,119,001,2019_Sep_26_1712,MusicAffectPsychophysiology2019,3.0.5,29.984772563019227,
To what extent did the music make you feel ,ANGRY,30MonoWAV/30MonoT2.wav,2,1,4,14,,,,,0,2,2,13,0,10,10,2,,,,,,,,,1,1.5360149500011175,119,001,2019_Sep_26_1712,MusicAffectPsychophysiology2019,3.0.5,29.984772563019227,
To what extent did the music make you feel ,FRUSTRATED,30MonoWAV/30MonoT2.wav,2,1,4,14,,,,,0,2,2,13,0,11,11,3,,,,,,,,,4,2.935629769002844,119,001,2019_Sep_26_1712,MusicAffectPsychophysiology2019,3.0.5,29.984772563019227,
,,30MonoWAV/30MonoT2.wav,2,1,4,14,,,,,0,2,2,13,,,,,,,,,,,,,,,119,001,2019_Sep_26_1712,MusicAffectPsychophysiology2019,3.0.5,29.984772563019227,
To what extent did the music make you feel ,SCARED,30MonoWAV/30MonoS3.wav,1,1,3,11,,,,,0,3,3,10,0,0,0,11,,,2,4.736715538998396,1,1.6852952410008584,2,3.652051056000346,4,2.1079601329984143,119,001,2019_Sep_26_1712,MusicAffectPsychophysiology2019,3.0.5,29.984772563019227,
To what extent did the music make you feel ,GUILTY,30MonoWAV/30MonoS3.wav,1,1,3,11,,,,,0,3,3,10,0,1,1,5,,,,,,,,,4,2.4529682219981623,119,001,2019_Sep_26_1712,MusicAffectPsychophysiology2019,3.0.5,29.984772563019227,
To what extent did the music make you feel ,ASHAMED,30MonoWAV/30MonoS3.wav,1,1,3,11,,,,,0,3,3,10,0,2,2,4,,,,,,,,,4,4.168246351000562,119,001,2019_Sep_26_1712,MusicAffectPsychophysiology2019,3.0.5,29.984772563019227,
To what extent did the music make you feel ,ANGRY,30MonoWAV/30MonoS3.wav,1,1,3,11,,,,,0,3,3,10,0,3,3,2,,,,,,,,,3,2.1528795790000004,119,001,2019_Sep_26_1712,MusicAffectPsychophysiology2019,3.0.5,29.984772563019227,
To what extent did the music make you feel ,ALERT,30MonoWAV/30MonoS3.wav,1,1,3,11,,,,,0,3,3,10,0,4,4,8,,,,,,,,,4,1.8191183939998155,119,001,2019_Sep_26_1712,MusicAffectPsychophysiology2019,3.0.5,29.984772563019227,
To what extent did the music make you feel ,FRUSTRATED,30MonoWAV/30MonoS3.wav,1,1,3,11,,,,,0,3,3,10,0,5,5,3,,,,,,,,,5,2.5181188189999375,119,001,2019_Sep_26_1712,MusicAffectPsychophysiology2019,3.0.5,29.984772563019227,
To what extent did the music make you feel ,ACTIVE,30MonoWAV/30MonoS3.wav,1,1,3,11,,,,,0,3,3,10,0,6,6,9,,,,,,,,,1,3.3494777150008304,119,001,2019_Sep_26_1712,MusicAffectPsychophysiology2019,3.0.5,29.984772563019227,
To what extent did the music make you feel ,SAD,30MonoWAV/30MonoS3.wav,1,1,3,11,,,,,0,3,3,10,0,7,7,0,,,,,,,,,4,3.2519988759995613,119,001,2019_Sep_26_1712,MusicAffectPsychophysiology2019,3.0.5,29.984772563019227,
To what extent did the music make you feel ,ANXIOUS ,30MonoWAV/30MonoS3.wav,1,1,3,11,,,,,0,3,3,10,0,8,8,1,,,,,,,,,3,3.334135893997882,119,001,2019_Sep_26_1712,MusicAffectPsychophysiology2019,3.0.5,29.984772563019227,
To what extent did the music make you feel ,TENDER,30MonoWAV/30MonoS3.wav,1,1,3,11,,,,,0,3,3,10,0,9,9,10,,,,,,,,,3,3.303788524997799,119,001,2019_Sep_26_1712,MusicAffectPsychophysiology2019,3.0.5,29.984772563019227,
To what extent did the music make you feel ,EXCITED,30MonoWAV/30MonoS3.wav,1,1,3,11,,,,,0,3,3,10,0,10,10,7,,,,,,,,,1,7.035561177999625,119,001,2019_Sep_26_1712,MusicAffectPsychophysiology2019,3.0.5,29.984772563019227,
To what extent did the music make you feel ,HAPPY,30MonoWAV/30MonoS3.wav,1,1,3,11,,,,,0,3,3,10,0,11,11,6,,,,,,,,,1,1.451958696001384,119,001,2019_Sep_26_1712,MusicAffectPsychophysiology2019,3.0.5,29.984772563019227,
,,30MonoWAV/30MonoS3.wav,1,1,3,11,,,,,0,3,3,10,,,,,,,,,,,,,,,119,001,2019_Sep_26_1712,MusicAffectPsychophysiology2019,3.0.5,29.984772563019227,
To what extent did the music make you feel ,GUILTY,30MonoWAV/30MonoS1.wav,1,1,3,9,,,,,0,4,4,8,0,0,0,5,,,2,3.218362031999277,1,2.7020344189986645,4,5.43479394699898,4,2.8991398200014373,119,001,2019_Sep_26_1712,MusicAffectPsychophysiology2019,3.0.5,29.984772563019227,
To what extent did the music make you feel ,ANXIOUS ,30MonoWAV/30MonoS1.wav,1,1,3,9,,,,,0,4,4,8,0,1,1,1,,,,,,,,,3,2.350667546998011,119,001,2019_Sep_26_1712,MusicAffectPsychophysiology2019,3.0.5,29.984772563019227,
To what extent did the music make you feel ,FRUSTRATED,30MonoWAV/30MonoS1.wav,1,1,3,9,,,,,0,4,4,8,0,2,2,3,,,,,,,,,5,1.902883880000445,119,001,2019_Sep_26_1712,MusicAffectPsychophysiology2019,3.0.5,29.984772563019227,
To what extent did the music make you feel ,ASHAMED,30MonoWAV/30MonoS1.wav,1,1,3,9,,,,,0,4,4,8,0,3,3,4,,,,,,,,,4,1.9027931870004977,119,001,2019_Sep_26_1712,MusicAffectPsychophysiology2019,3.0.5,29.984772563019227,
To what extent did the music make you feel ,SCARED,30MonoWAV/30MonoS1.wav,1,1,3,9,,,,,0,4,4,8,0,4,4,11,,,,,,,,,2,2.818970463998994,119,001,2019_Sep_26_1712,MusicAffectPsychophysiology2019,3.0.5,29.984772563019227,
To what extent did the music make you feel ,HAPPY,30MonoWAV/30MonoS1.wav,1,1,3,9,,,,,0,4,4,8,0,5,5,6,,,,,,,,,1,1.9529027869975835,119,001,2019_Sep_26_1712,MusicAffectPsychophysiology2019,3.0.5,29.984772563019227,
To what extent did the music make you feel ,EXCITED,30MonoWAV/30MonoS1.wav,1,1,3,9,,,,,0,4,4,8,0,6,6,7,,,,,,,,,1,2.616734577000898,119,001,2019_Sep_26_1712,MusicAffectPsychophysiology2019,3.0.5,29.984772563019227,
To what extent did the music make you feel ,ACTIVE,30MonoWAV/30MonoS1.wav,1,1,3,9,,,,,0,4,4,8,0,7,7,9,,,,,,,,,1,3.585522868001135,119,001,2019_Sep_26_1712,MusicAffectPsychophysiology2019,3.0.5,29.984772563019227,
To what extent did the music make you feel ,ALERT,30MonoWAV/30MonoS1.wav,1,1,3,9,,,,,0,4,4,8,0,8,8,8,,,,,,,,,2,4.619888563000131,119,001,2019_Sep_26_1712,MusicAffectPsychophysiology2019,3.0.5,29.984772563019227,
To what extent did the music make you feel ,ANGRY,30MonoWAV/30MonoS1.wav,1,1,3,9,,,,,0,4,4,8,0,9,9,2,,,,,,,,,3,2.713606543999049,119,001,2019_Sep_26_1712,MusicAffectPsychophysiology2019,3.0.5,29.984772563019227,
To what extent did the music make you feel ,SAD,30MonoWAV/30MonoS1.wav,1,1,3,9,,,,,0,4,4,8,0,10,10,0,,,,,,,,,5,2.4172398730006535,119,001,2019_Sep_26_1712,MusicAffectPsychophysiology2019,3.0.5,29.984772563019227,
To what extent did the music make you feel ,TENDER,30MonoWAV/30MonoS1.wav,1,1,3,9,,,,,0,4,4,8,0,11,11,10,,,,,,,,,3,7.467741524000303,119,001,2019_Sep_26_1712,MusicAffectPsychophysiology2019,3.0.5,29.984772563019227,
,,30MonoWAV/30MonoS1.wav,1,1,3,9,,,,,0,4,4,8,,,,,,,,,,,,,,,119,001,2019_Sep_26_1712,MusicAffectPsychophysiology2019,3.0.5,29.984772563019227,
To what extent did the music make you feel ,FRUSTRATED,30MonoWAV/30MonoF1.wav,1,2,2,1,,,,,0,5,5,0,0,0,0,3,,,4,9.018345406999288,2,1.9341650329988624,1,4.167654292999941,2,7.171600838999439,119,001,2019_Sep_26_1712,MusicAffectPsychophysiology2019,3.0.5,29.984772563019227,
To what extent did the music make you feel ,GUILTY,30MonoWAV/30MonoF1.wav,1,2,2,1,,,,,0,5,5,0,0,1,1,5,,,,,,,,,1,1.5858288029994583,119,001,2019_Sep_26_1712,MusicAffectPsychophysiology2019,3.0.5,29.984772563019227,
To what extent did the music make you feel ,EXCITED,30MonoWAV/30MonoF1.wav,1,2,2,1,,,,,0,5,5,0,0,2,2,7,,,,,,,,,3,3.018184396001743,119,001,2019_Sep_26_1712,MusicAffectPsychophysiology2019,3.0.5,29.984772563019227,
To what extent did the music make you feel ,SAD,30MonoWAV/30MonoF1.wav,1,2,2,1,,,,,0,5,5,0,0,3,3,0,,,,,,,,,1,2.3000748089980334,119,001,2019_Sep_26_1712,MusicAffectPsychophysiology2019,3.0.5,29.984772563019227,
To what extent did the music make you feel ,TENDER,30MonoWAV/30MonoF1.wav,1,2,2,1,,,,,0,5,5,0,0,4,4,10,,,,,,,,,2,2.384133090999967,119,001,2019_Sep_26_1712,MusicAffectPsychophysiology2019,3.0.5,29.984772563019227,
To what extent did the music make you feel ,HAPPY,30MonoWAV/30MonoF1.wav,1,2,2,1,,,,,0,5,5,0,0,5,5,6,,,,,,,,,2,4.51915838900095,119,001,2019_Sep_26_1712,MusicAffectPsychophysiology2019,3.0.5,29.984772563019227,
To what extent did the music make you feel ,SCARED,30MonoWAV/30MonoF1.wav,1,2,2,1,,,,,0,5,5,0,0,6,6,11,,,,,,,,,4,2.8849854139989475,119,001,2019_Sep_26_1712,MusicAffectPsychophysiology2019,3.0.5,29.984772563019227,
To what extent did the music make you feel ,ALERT,30MonoWAV/30MonoF1.wav,1,2,2,1,,,,,0,5,5,0,0,7,7,8,,,,,,,,,5,1.7356851849981467,119,001,2019_Sep_26_1712,MusicAffectPsychophysiology2019,3.0.5,29.984772563019227,
To what extent did the music make you feel ,ACTIVE,30MonoWAV/30MonoF1.wav,1,2,2,1,,,,,0,5,5,0,0,8,8,9,,,,,,,,,3,7.819241837998561,119,001,2019_Sep_26_1712,MusicAffectPsychophysiology2019,3.0.5,29.984772563019227,
To what extent did the music make you feel ,ANXIOUS ,30MonoWAV/30MonoF1.wav,1,2,2,1,,,,,0,5,5,0,0,9,9,1,,,,,,,,,3,2.1841816489977646,119,001,2019_Sep_26_1712,MusicAffectPsychophysiology2019,3.0.5,29.984772563019227,
To what extent did the music make you feel ,ASHAMED,30MonoWAV/30MonoF1.wav,1,2,2,1,,,,,0,5,5,0,0,10,10,4,,,,,,,,,2,1.535627706998639,119,001,2019_Sep_26_1712,MusicAffectPsychophysiology2019,3.0.5,29.984772563019227,
To what extent did the music make you feel ,ANGRY,30MonoWAV/30MonoF1.wav,1,2,2,1,,,,,0,5,5,0,0,11,11,2,,,,,,,,,3,1.852990907998901,119,001,2019_Sep_26_1712,MusicAffectPsychophysiology2019,3.0.5,29.984772563019227,
,,30MonoWAV/30MonoF1.wav,1,2,2,1,,,,,0,5,5,0,,,,,,,,,,,,,,,119,001,2019_Sep_26_1712,MusicAffectPsychophysiology2019,3.0.5,29.984772563019227,
To what extent did the music make you feel ,FRUSTRATED,30MonoWAV/30MonoH1.wav,2,2,1,5,,,,,0,6,6,4,0,0,0,3,,,4,3.251940966001712,4,2.152055204001954,3,2.567991673000506,1,3.2454765219990804,119,001,2019_Sep_26_1712,MusicAffectPsychophysiology2019,3.0.5,29.984772563019227,
To what extent did the music make you feel ,TENDER,30MonoWAV/30MonoH1.wav,2,2,1,5,,,,,0,6,6,4,0,1,1,10,,,,,,,,,3,3.4849468049978896,119,001,2019_Sep_26_1712,MusicAffectPsychophysiology2019,3.0.5,29.984772563019227,
To what extent did the music make you feel ,ALERT,30MonoWAV/30MonoH1.wav,2,2,1,5,,,,,0,6,6,4,0,2,2,8,,,,,,,,,2,1.9353695630015864,119,001,2019_Sep_26_1712,MusicAffectPsychophysiology2019,3.0.5,29.984772563019227,
To what extent did the music make you feel ,SCARED,30MonoWAV/30MonoH1.wav,2,2,1,5,,,,,0,6,6,4,0,3,3,11,,,,,,,,,1,2.302782328999456,119,001,2019_Sep_26_1712,MusicAffectPsychophysiology2019,3.0.5,29.984772563019227,
To what extent did the music make you feel ,EXCITED,30MonoWAV/30MonoH1.wav,2,2,1,5,,,,,0,6,6,4,0,4,4,7,,,,,,,,,4,1.8680452709995734,119,001,2019_Sep_26_1712,MusicAffectPsychophysiology2019,3.0.5,29.984772563019227,
To what extent did the music make you feel ,HAPPY,30MonoWAV/30MonoH1.wav,2,2,1,5,,,,,0,6,6,4,0,5,5,6,,,,,,,,,4,1.6190312639992044,119,001,2019_Sep_26_1712,MusicAffectPsychophysiology2019,3.0.5,29.984772563019227,
To what extent did the music make you feel ,ANGRY,30MonoWAV/30MonoH1.wav,2,2,1,5,,,,,0,6,6,4,0,6,6,2,,,,,,,,,1,1.5841055800010508,119,001,2019_Sep_26_1712,MusicAffectPsychophysiology2019,3.0.5,29.984772563019227,
To what extent did the music make you feel ,GUILTY,30MonoWAV/30MonoH1.wav,2,2,1,5,,,,,0,6,6,4,0,7,7,5,,,,,,,,,1,1.884012556001835,119,001,2019_Sep_26_1712,MusicAffectPsychophysiology2019,3.0.5,29.984772563019227,
To what extent did the music make you feel ,ANXIOUS ,30MonoWAV/30MonoH1.wav,2,2,1,5,,,,,0,6,6,4,0,8,8,1,,,,,,,,,1,1.3340001130018209,119,001,2019_Sep_26_1712,MusicAffectPsychophysiology2019,3.0.5,29.984772563019227,
To what extent did the music make you feel ,SAD,30MonoWAV/30MonoH1.wav,2,2,1,5,,,,,0,6,6,4,0,9,9,0,,,,,,,,,1,1.7855002569995122,119,001,2019_Sep_26_1712,MusicAffectPsychophysiology2019,3.0.5,29.984772563019227,
To what extent did the music make you feel ,ASHAMED,30MonoWAV/30MonoH1.wav,2,2,1,5,,,,,0,6,6,4,0,10,10,4,,,,,,,,,1,4.102375192000181,119,001,2019_Sep_26_1712,MusicAffectPsychophysiology2019,3.0.5,29.984772563019227,
To what extent did the music make you feel ,ACTIVE,30MonoWAV/30MonoH1.wav,2,2,1,5,,,,,0,6,6,4,0,11,11,9,,,,,,,,,4,2.0522803999992902,119,001,2019_Sep_26_1712,MusicAffectPsychophysiology2019,3.0.5,29.984772563019227,
,,30MonoWAV/30MonoH1.wav,2,2,1,5,,,,,0,6,6,4,,,,,,,,,,,,,,,119,001,2019_Sep_26_1712,MusicAffectPsychophysiology2019,3.0.5,29.984772563019227,
To what extent did the music make you feel ,TENDER,30MonoWAV/30MonoF2.wav,1,2,2,2,,,,,0,7,7,1,0,0,0,10,,,2,4.685011329002009,1,3.052194250998582,1,3.1687310189990967,3,5.118927457999234,119,001,2019_Sep_26_1712,MusicAffectPsychophysiology2019,3.0.5,29.984772563019227,
To what extent did the music make you feel ,GUILTY,30MonoWAV/30MonoF2.wav,1,2,2,2,,,,,0,7,7,1,0,1,1,5,,,,,,,,,1,1.4849241749980138,119,001,2019_Sep_26_1712,MusicAffectPsychophysiology2019,3.0.5,29.984772563019227,
To what extent did the music make you feel ,ASHAMED,30MonoWAV/30MonoF2.wav,1,2,2,2,,,,,0,7,7,1,0,2,2,4,,,,,,,,,1,1.365773576999345,119,001,2019_Sep_26_1712,MusicAffectPsychophysiology2019,3.0.5,29.984772563019227,
To what extent did the music make you feel ,ANGRY,30MonoWAV/30MonoF2.wav,1,2,2,2,,,,,0,7,7,1,0,3,3,2,,,,,,,,,3,3.633877719999873,119,001,2019_Sep_26_1712,MusicAffectPsychophysiology2019,3.0.5,29.984772563019227,
To what extent did the music make you feel ,ANXIOUS ,30MonoWAV/30MonoF2.wav,1,2,2,2,,,,,0,7,7,1,0,4,4,1,,,,,,,,,5,2.1027137910023157,119,001,2019_Sep_26_1712,MusicAffectPsychophysiology2019,3.0.5,29.984772563019227,
To what extent did the music make you feel ,ACTIVE,30MonoWAV/30MonoF2.wav,1,2,2,2,,,,,0,7,7,1,0,5,5,9,,,,,,,,,2,2.0023122830025386,119,001,2019_Sep_26_1712,MusicAffectPsychophysiology2019,3.0.5,29.984772563019227,
To what extent did the music make you feel ,SCARED,30MonoWAV/30MonoF2.wav,1,2,2,2,,,,,0,7,7,1,0,6,6,11,,,,,,,,,5,1.6686351939970336,119,001,2019_Sep_26_1712,MusicAffectPsychophysiology2019,3.0.5,29.984772563019227,
To what extent did the music make you feel ,EXCITED,30MonoWAV/30MonoF2.wav,1,2,2,2,,,,,0,7,7,1,0,7,7,7,,,,,,,,,1,3.085662058998423,119,001,2019_Sep_26_1712,MusicAffectPsychophysiology2019,3.0.5,29.984772563019227,
To what extent did the music make you feel ,HAPPY,30MonoWAV/30MonoF2.wav,1,2,2,2,,,,,0,7,7,1,0,8,8,6,,,,,,,,,1,1.385632549001457,119,001,2019_Sep_26_1712,MusicAffectPsychophysiology2019,3.0.5,29.984772563019227,
To what extent did the music make you feel ,FRUSTRATED,30MonoWAV/30MonoF2.wav,1,2,2,2,,,,,0,7,7,1,0,9,9,3,,,,,,,,,2,1.6369761979985924,119,001,2019_Sep_26_1712,MusicAffectPsychophysiology2019,3.0.5,29.984772563019227,
To what extent did the music make you feel ,ALERT,30MonoWAV/30MonoF2.wav,1,2,2,2,,,,,0,7,7,1,0,10,10,8,,,,,,,,,4,1.9851878460031003,119,001,2019_Sep_26_1712,MusicAffectPsychophysiology2019,3.0.5,29.984772563019227,
To what extent did the music make you feel ,SAD,30MonoWAV/30MonoF2.wav,1,2,2,2,,,,,0,7,7,1,0,11,11,0,,,,,,,,,4,2.06910527600121,119,001,2019_Sep_26_1712,MusicAffectPsychophysiology2019,3.0.5,29.984772563019227,
,,30MonoWAV/30MonoF2.wav,1,2,2,2,,,,,0,7,7,1,,,,,,,,,,,,,,,119,001,2019_Sep_26_1712,MusicAffectPsychophysiology2019,3.0.5,29.984772563019227,
To what extent did the music make you feel ,ALERT,30MonoWAV/30MonoT4.wav,2,1,4,16,,,,,0,8,8,15,0,0,0,8,,,4,3.7853123629975016,4,2.520212227002048,4,3.6854268749993935,1,2.7128604230019846,119,001,2019_Sep_26_1712,MusicAffectPsychophysiology2019,3.0.5,29.984772563019227,
To what extent did the music make you feel ,ANXIOUS ,30MonoWAV/30MonoT4.wav,2,1,4,16,,,,,0,8,8,15,0,1,1,1,,,,,,,,,1,2.402979697999399,119,001,2019_Sep_26_1712,MusicAffectPsychophysiology2019,3.0.5,29.984772563019227,
To what extent did the music make you feel ,GUILTY,30MonoWAV/30MonoT4.wav,2,1,4,16,,,,,0,8,8,15,0,2,2,5,,,,,,,,,3,3.0349798050010577,119,001,2019_Sep_26_1712,MusicAffectPsychophysiology2019,3.0.5,29.984772563019227,
To what extent did the music make you feel ,EXCITED,30MonoWAV/30MonoT4.wav,2,1,4,16,,,,,0,8,8,15,0,3,3,7,,,,,,,,,3,2.318610386002547,119,001,2019_Sep_26_1712,MusicAffectPsychophysiology2019,3.0.5,29.984772563019227,
To what extent did the music make you feel ,SAD,30MonoWAV/30MonoT4.wav,2,1,4,16,,,,,0,8,8,15,0,4,4,0,,,,,,,,,2,1.7154720860016823,119,001,2019_Sep_26_1712,MusicAffectPsychophysiology2019,3.0.5,29.984772563019227,
To what extent did the music make you feel ,ACTIVE,30MonoWAV/30MonoT4.wav,2,1,4,16,,,,,0,8,8,15,0,5,5,9,,,,,,,,,3,1.8187963660020614,119,001,2019_Sep_26_1712,MusicAffectPsychophysiology2019,3.0.5,29.984772563019227,
To what extent did the music make you feel ,ASHAMED,30MonoWAV/30MonoT4.wav,2,1,4,16,,,,,0,8,8,15,0,6,6,4,,,,,,,,,2,2.350514835001377,119,001,2019_Sep_26_1712,MusicAffectPsychophysiology2019,3.0.5,29.984772563019227,
To what extent did the music make you feel ,HAPPY,30MonoWAV/30MonoT4.wav,2,1,4,16,,,,,0,8,8,15,0,7,7,6,,,,,,,,,4,4.1507570529975055,119,001,2019_Sep_26_1712,MusicAffectPsychophysiology2019,3.0.5,29.984772563019227,
To what extent did the music make you feel ,ANGRY,30MonoWAV/30MonoT4.wav,2,1,4,16,,,,,0,8,8,15,0,8,8,2,,,,,,,,,1,1.5182357489975402,119,001,2019_Sep_26_1712,MusicAffectPsychophysiology2019,3.0.5,29.984772563019227,
To what extent did the music make you feel ,SCARED,30MonoWAV/30MonoT4.wav,2,1,4,16,,,,,0,8,8,15,0,9,9,11,,,,,,,,,1,1.5697125080005208,119,001,2019_Sep_26_1712,MusicAffectPsychophysiology2019,3.0.5,29.984772563019227,
To what extent did the music make you feel ,TENDER,30MonoWAV/30MonoT4.wav,2,1,4,16,,,,,0,8,8,15,0,10,10,10,,,,,,,,,3,4.242674249002448,119,001,2019_Sep_26_1712,MusicAffectPsychophysiology2019,3.0.5,29.984772563019227,
To what extent did the music make you feel ,FRUSTRATED,30MonoWAV/30MonoT4.wav,2,1,4,16,,,,,0,8,8,15,0,11,11,3,,,,,,,,,2,1.704016761003004,119,001,2019_Sep_26_1712,MusicAffectPsychophysiology2019,3.0.5,29.984772563019227,
,,30MonoWAV/30MonoT4.wav,2,1,4,16,,,,,0,8,8,15,,,,,,,,,,,,,,,119,001,2019_Sep_26_1712,MusicAffectPsychophysiology2019,3.0.5,29.984772563019227,
To what extent did the music make you feel ,ASHAMED,30MonoWAV/30MonoT1.wav,2,1,4,13,,,,,0,9,9,12,0,0,0,4,,,3,1.9352689569968788,4,3.1330060440013767,4,2.2341534460028925,1,3.51879183499841,119,001,2019_Sep_26_1712,MusicAffectPsychophysiology2019,3.0.5,29.984772563019227,
To what extent did the music make you feel ,EXCITED,30MonoWAV/30MonoT1.wav,2,1,4,13,,,,,0,9,9,12,0,1,1,7,,,,,,,,,4,1.6324821710004471,119,001,2019_Sep_26_1712,MusicAffectPsychophysiology2019,3.0.5,29.984772563019227,
To what extent did the music make you feel ,ANXIOUS ,30MonoWAV/30MonoT1.wav,2,1,4,13,,,,,0,9,9,12,0,2,2,1,,,,,,,,,1,1.2032738150010118,119,001,2019_Sep_26_1712,MusicAffectPsychophysiology2019,3.0.5,29.984772563019227,
To what extent did the music make you feel ,FRUSTRATED,30MonoWAV/30MonoT1.wav,2,1,4,13,,,,,0,9,9,12,0,3,3,3,,,,,,,,,2,2.036465965997195,119,001,2019_Sep_26_1712,MusicAffectPsychophysiology2019,3.0.5,29.984772563019227,
To what extent did the music make you feel ,TENDER,30MonoWAV/30MonoT1.wav,2,1,4,13,,,,,0,9,9,12,0,4,4,10,,,,,,,,,2,1.4695414640009403,119,001,2019_Sep_26_1712,MusicAffectPsychophysiology2019,3.0.5,29.984772563019227,
To what extent did the music make you feel ,ANGRY,30MonoWAV/30MonoT1.wav,2,1,4,13,,,,,0,9,9,12,0,5,5,2,,,,,,,,,1,1.8695798299995658,119,001,2019_Sep_26_1712,MusicAffectPsychophysiology2019,3.0.5,29.984772563019227,
To what extent did the music make you feel ,GUILTY,30MonoWAV/30MonoT1.wav,2,1,4,13,,,,,0,9,9,12,0,6,6,5,,,,,,,,,1,4.502870708001865,119,001,2019_Sep_26_1712,MusicAffectPsychophysiology2019,3.0.5,29.984772563019227,
To what extent did the music make you feel ,SAD,30MonoWAV/30MonoT1.wav,2,1,4,13,,,,,0,9,9,12,0,7,7,0,,,,,,,,,2,4.635556806002569,119,001,2019_Sep_26_1712,MusicAffectPsychophysiology2019,3.0.5,29.984772563019227,
To what extent did the music make you feel ,ALERT,30MonoWAV/30MonoT1.wav,2,1,4,13,,,,,0,9,9,12,0,8,8,8,,,,,,,,,1,1.5529017910012044,119,001,2019_Sep_26_1712,MusicAffectPsychophysiology2019,3.0.5,29.984772563019227,
To what extent did the music make you feel ,HAPPY,30MonoWAV/30MonoT1.wav,2,1,4,13,,,,,0,9,9,12,0,9,9,6,,,,,,,,,4,3.4692170759990404,119,001,2019_Sep_26_1712,MusicAffectPsychophysiology2019,3.0.5,29.984772563019227,
To what extent did the music make you feel ,SCARED,30MonoWAV/30MonoT1.wav,2,1,4,13,,,,,0,9,9,12,0,10,10,11,,,,,,,,,1,1.3355975300000864,119,001,2019_Sep_26_1712,MusicAffectPsychophysiology2019,3.0.5,29.984772563019227,
To what extent did the music make you feel ,ACTIVE,30MonoWAV/30MonoT1.wav,2,1,4,13,,,,,0,9,9,12,0,11,11,9,,,,,,,,,3,1.868704163000075,119,001,2019_Sep_26_1712,MusicAffectPsychophysiology2019,3.0.5,29.984772563019227,
,,30MonoWAV/30MonoT1.wav,2,1,4,13,,,,,0,9,9,12,,,,,,,,,,,,,,,119,001,2019_Sep_26_1712,MusicAffectPsychophysiology2019,3.0.5,29.984772563019227,
To what extent did the music make you feel ,SAD,30MonoWAV/30MonoS4.wav,1,1,3,12,,,,,0,10,10,11,0,0,0,0,,,2,2.4677426449998165,2,1.535731300999032,4,2.3508978630015918,4,1.5360079870006302,119,001,2019_Sep_26_1712,MusicAffectPsychophysiology2019,3.0.5,29.984772563019227,
To what extent did the music make you feel ,FRUSTRATED,30MonoWAV/30MonoS4.wav,1,1,3,12,,,,,0,10,10,11,0,1,1,3,,,,,,,,,5,1.5191244739980903,119,001,2019_Sep_26_1712,MusicAffectPsychophysiology2019,3.0.5,29.984772563019227,
To what extent did the music make you feel ,GUILTY,30MonoWAV/30MonoS4.wav,1,1,3,12,,,,,0,10,10,11,0,2,2,5,,,,,,,,,3,2.651713863997429,119,001,2019_Sep_26_1712,MusicAffectPsychophysiology2019,3.0.5,29.984772563019227,
To what extent did the music make you feel ,ANXIOUS ,30MonoWAV/30MonoS4.wav,1,1,3,12,,,,,0,10,10,11,0,3,3,1,,,,,,,,,1,1.6519933700001275,119,001,2019_Sep_26_1712,MusicAffectPsychophysiology2019,3.0.5,29.984772563019227,
To what extent did the music make you feel ,ACTIVE,30MonoWAV/30MonoS4.wav,1,1,3,12,,,,,0,10,10,11,0,4,4,9,,,,,,,,,2,1.269457878999674,119,001,2019_Sep_26_1712,MusicAffectPsychophysiology2019,3.0.5,29.984772563019227,
To what extent did the music make you feel ,HAPPY,30MonoWAV/30MonoS4.wav,1,1,3,12,,,,,0,10,10,11,0,5,5,6,,,,,,,,,1,1.468980764002481,119,001,2019_Sep_26_1712,MusicAffectPsychophysiology2019,3.0.5,29.984772563019227,
To what extent did the music make you feel ,ANGRY,30MonoWAV/30MonoS4.wav,1,1,3,12,,,,,0,10,10,11,0,6,6,2,,,,,,,,,1,1.7523796199966455,119,001,2019_Sep_26_1712,MusicAffectPsychophysiology2019,3.0.5,29.984772563019227,
To what extent did the music make you feel ,EXCITED,30MonoWAV/30MonoS4.wav,1,1,3,12,,,,,0,10,10,11,0,7,7,7,,,,,,,,,1,4.218359578997479,119,001,2019_Sep_26_1712,MusicAffectPsychophysiology2019,3.0.5,29.984772563019227,
To what extent did the music make you feel ,ALERT,30MonoWAV/30MonoS4.wav,1,1,3,12,,,,,0,10,10,11,0,8,8,8,,,,,,,,,1,1.3522416169980715,119,001,2019_Sep_26_1712,MusicAffectPsychophysiology2019,3.0.5,29.984772563019227,
To what extent did the music make you feel ,ASHAMED,30MonoWAV/30MonoS4.wav,1,1,3,12,,,,,0,10,10,11,0,9,9,4,,,,,,,,,2,3.8856767210018006,119,001,2019_Sep_26_1712,MusicAffectPsychophysiology2019,3.0.5,29.984772563019227,
To what extent did the music make you feel ,SCARED,30MonoWAV/30MonoS4.wav,1,1,3,12,,,,,0,10,10,11,0,10,10,11,,,,,,,,,1,1.4845124120001856,119,001,2019_Sep_26_1712,MusicAffectPsychophysiology2019,3.0.5,29.984772563019227,
To what extent did the music make you feel ,TENDER,30MonoWAV/30MonoS4.wav,1,1,3,12,,,,,0,10,10,11,0,11,11,10,,,,,,,,,2,4.051471831000526,119,001,2019_Sep_26_1712,MusicAffectPsychophysiology2019,3.0.5,29.984772563019227,
,,30MonoWAV/30MonoS4.wav,1,1,3,12,,,,,0,10,10,11,,,,,,,,,,,,,,,119,001,2019_Sep_26_1712,MusicAffectPsychophysiology2019,3.0.5,29.984772563019227,
To what extent did the music make you feel ,SAD,30MonoWAV/30MonoH2.wav,2,2,1,6,,,,,0,11,11,5,0,0,0,0,,,5,3.284707539998635,4,3.035483481002302,4,1.6682204690005165,1,4.387069412001438,119,001,2019_Sep_26_1712,MusicAffectPsychophysiology2019,3.0.5,29.984772563019227,
To what extent did the music make you feel ,EXCITED,30MonoWAV/30MonoH2.wav,2,2,1,6,,,,,0,11,11,5,0,1,1,7,,,,,,,,,5,3.0007847150009184,119,001,2019_Sep_26_1712,MusicAffectPsychophysiology2019,3.0.5,29.984772563019227,
To what extent did the music make you feel ,FRUSTRATED,30MonoWAV/30MonoH2.wav,2,2,1,6,,,,,0,11,11,5,0,2,2,3,,,,,,,,,1,2.0347648919996573,119,001,2019_Sep_26_1712,MusicAffectPsychophysiology2019,3.0.5,29.984772563019227,
To what extent did the music make you feel ,GUILTY,30MonoWAV/30MonoH2.wav,2,2,1,6,,,,,0,11,11,5,0,3,3,5,,,,,,,,,1,1.5185936779998883,119,001,2019_Sep_26_1712,MusicAffectPsychophysiology2019,3.0.5,29.984772563019227,
To what extent did the music make you feel ,ANXIOUS ,30MonoWAV/30MonoH2.wav,2,2,1,6,,,,,0,11,11,5,0,4,4,1,,,,,,,,,2,2.2194796500007214,119,001,2019_Sep_26_1712,MusicAffectPsychophysiology2019,3.0.5,29.984772563019227,
To what extent did the music make you feel ,ANGRY,30MonoWAV/30MonoH2.wav,2,2,1,6,,,,,0,11,11,5,0,5,5,2,,,,,,,,,1,2.6193526460010617,119,001,2019_Sep_26_1712,MusicAffectPsychophysiology2019,3.0.5,29.984772563019227,
To what extent did the music make you feel ,SCARED,30MonoWAV/30MonoH2.wav,2,2,1,6,,,,,0,11,11,5,0,6,6,11,,,,,,,,,2,2.902549000998988,119,001,2019_Sep_26_1712,MusicAffectPsychophysiology2019,3.0.5,29.984772563019227,
To what extent did the music make you feel ,ACTIVE,30MonoWAV/30MonoH2.wav,2,2,1,6,,,,,0,11,11,5,0,7,7,9,,,,,,,,,4,2.633062635002716,119,001,2019_Sep_26_1712,MusicAffectPsychophysiology2019,3.0.5,29.984772563019227,
To what extent did the music make you feel ,ALERT,30MonoWAV/30MonoH2.wav,2,2,1,6,,,,,0,11,11,5,0,8,8,8,,,,,,,,,3,1.9686630570031411,119,001,2019_Sep_26_1712,MusicAffectPsychophysiology2019,3.0.5,29.984772563019227,
To what extent did the music make you feel ,TENDER,30MonoWAV/30MonoH2.wav,2,2,1,6,,,,,0,11,11,5,0,9,9,10,,,,,,,,,3,1.4022153780024382,119,001,2019_Sep_26_1712,MusicAffectPsychophysiology2019,3.0.5,29.984772563019227,
To what extent did the music make you feel ,HAPPY,30MonoWAV/30MonoH2.wav,2,2,1,6,,,,,0,11,11,5,0,10,10,6,,,,,,,,,4,1.5195970970016788,119,001,2019_Sep_26_1712,MusicAffectPsychophysiology2019,3.0.5,29.984772563019227,
To what extent did the music make you feel ,ASHAMED,30MonoWAV/30MonoH2.wav,2,2,1,6,,,,,0,11,11,5,0,11,11,4,,,,,,,,,1,2.103212755999266,119,001,2019_Sep_26_1712,MusicAffectPsychophysiology2019,3.0.5,29.984772563019227,
,,30MonoWAV/30MonoH2.wav,2,2,1,6,,,,,0,11,11,5,,,,,,,,,,,,,,,119,001,2019_Sep_26_1712,MusicAffectPsychophysiology2019,3.0.5,29.984772563019227,
To what extent did the music make you feel ,TENDER,30MonoWAV/30MonoF3.wav,1,2,2,3,,,,,0,12,12,2,0,0,0,10,,,3,7.801862991997041,2,2.4856484339979943,2,3.6711692530006985,2,2.1804690629978722,119,001,2019_Sep_26_1712,MusicAffectPsychophysiology2019,3.0.5,29.984772563019227,
To what extent did the music make you feel ,SAD,30MonoWAV/30MonoF3.wav,1,2,2,3,,,,,0,12,12,2,0,1,1,0,,,,,,,,,2,1.8027300329995342,119,001,2019_Sep_26_1712,MusicAffectPsychophysiology2019,3.0.5,29.984772563019227,
To what extent did the music make you feel ,SCARED,30MonoWAV/30MonoF3.wav,1,2,2,3,,,,,0,12,12,2,0,2,2,11,,,,,,,,,4,1.3357720239982882,119,001,2019_Sep_26_1712,MusicAffectPsychophysiology2019,3.0.5,29.984772563019227,
To what extent did the music make you feel ,HAPPY,30MonoWAV/30MonoF3.wav,1,2,2,3,,,,,0,12,12,2,0,3,3,6,,,,,,,,,1,1.6021293479971064,119,001,2019_Sep_26_1712,MusicAffectPsychophysiology2019,3.0.5,29.984772563019227,
To what extent did the music make you feel ,FRUSTRATED,30MonoWAV/30MonoF3.wav,1,2,2,3,,,,,0,12,12,2,0,4,4,3,,,,,,,,,3,2.1029762040016067,119,001,2019_Sep_26_1712,MusicAffectPsychophysiology2019,3.0.5,29.984772563019227,
To what extent did the music make you feel ,ASHAMED,30MonoWAV/30MonoF3.wav,1,2,2,3,,,,,0,12,12,2,0,5,5,4,,,,,,,,,1,1.9691600469996047,119,001,2019_Sep_26_1712,MusicAffectPsychophysiology2019,3.0.5,29.984772563019227,
To what extent did the music make you feel ,ANGRY,30MonoWAV/30MonoF3.wav,1,2,2,3,,,,,0,12,12,2,0,6,6,2,,,,,,,,,1,1.6681160160005675,119,001,2019_Sep_26_1712,MusicAffectPsychophysiology2019,3.0.5,29.984772563019227,
To what extent did the music make you feel ,ANXIOUS ,30MonoWAV/30MonoF3.wav,1,2,2,3,,,,,0,12,12,2,0,7,7,1,,,,,,,,,4,2.102702459000284,119,001,2019_Sep_26_1712,MusicAffectPsychophysiology2019,3.0.5,29.984772563019227,
To what extent did the music make you feel ,EXCITED,30MonoWAV/30MonoF3.wav,1,2,2,3,,,,,0,12,12,2,0,8,8,7,,,,,,,,,3,1.4499894459986535,119,001,2019_Sep_26_1712,MusicAffectPsychophysiology2019,3.0.5,29.984772563019227,
To what extent did the music make you feel ,GUILTY,30MonoWAV/30MonoF3.wav,1,2,2,3,,,,,0,12,12,2,0,9,9,5,,,,,,,,,1,1.3017926150023413,119,001,2019_Sep_26_1712,MusicAffectPsychophysiology2019,3.0.5,29.984772563019227,
To what extent did the music make you feel ,ACTIVE,30MonoWAV/30MonoF3.wav,1,2,2,3,,,,,0,12,12,2,0,10,10,9,,,,,,,,,3,10.16779674600184,119,001,2019_Sep_26_1712,MusicAffectPsychophysiology2019,3.0.5,29.984772563019227,
To what extent did the music make you feel ,ALERT,30MonoWAV/30MonoF3.wav,1,2,2,3,,,,,0,12,12,2,0,11,11,8,,,,,,,,,4,1.4852900349978881,119,001,2019_Sep_26_1712,MusicAffectPsychophysiology2019,3.0.5,29.984772563019227,
,,30MonoWAV/30MonoF3.wav,1,2,2,3,,,,,0,12,12,2,,,,,,,,,,,,,,,119,001,2019_Sep_26_1712,MusicAffectPsychophysiology2019,3.0.5,29.984772563019227,
To what extent did the music make you feel ,TENDER,30MonoWAV/30MonoT3.wav,2,1,4,15,,,,,0,13,13,14,0,0,0,10,,,3,2.8529042010013654,3,2.185002533999068,3,3.0201505290024215,3,1.7358667939988663,119,001,2019_Sep_26_1712,MusicAffectPsychophysiology2019,3.0.5,29.984772563019227,
To what extent did the music make you feel ,EXCITED,30MonoWAV/30MonoT3.wav,2,1,4,15,,,,,0,13,13,14,0,1,1,7,,,,,,,,,2,1.5184891069984587,119,001,2019_Sep_26_1712,MusicAffectPsychophysiology2019,3.0.5,29.984772563019227,
To what extent did the music make you feel ,ACTIVE,30MonoWAV/30MonoT3.wav,2,1,4,15,,,,,0,13,13,14,0,2,2,9,,,,,,,,,2,2.0683577790005074,119,001,2019_Sep_26_1712,MusicAffectPsychophysiology2019,3.0.5,29.984772563019227,
To what extent did the music make you feel ,SAD,30MonoWAV/30MonoT3.wav,2,1,4,15,,,,,0,13,13,14,0,3,3,0,,,,,,,,,3,1.5516153950011358,119,001,2019_Sep_26_1712,MusicAffectPsychophysiology2019,3.0.5,29.984772563019227,
To what extent did the music make you feel ,ALERT,30MonoWAV/30MonoT3.wav,2,1,4,15,,,,,0,13,13,14,0,4,4,8,,,,,,,,,2,1.735791655999492,119,001,2019_Sep_26_1712,MusicAffectPsychophysiology2019,3.0.5,29.984772563019227,
To what extent did the music make you feel ,ANGRY,30MonoWAV/30MonoT3.wav,2,1,4,15,,,,,0,13,13,14,0,5,5,2,,,,,,,,,1,1.5839282990018546,119,001,2019_Sep_26_1712,MusicAffectPsychophysiology2019,3.0.5,29.984772563019227,
To what extent did the music make you feel ,ASHAMED,30MonoWAV/30MonoT3.wav,2,1,4,15,,,,,0,13,13,14,0,6,6,4,,,,,,,,,2,2.2187715100008063,119,001,2019_Sep_26_1712,MusicAffectPsychophysiology2019,3.0.5,29.984772563019227,
To what extent did the music make you feel ,ANXIOUS ,30MonoWAV/30MonoT3.wav,2,1,4,15,,,,,0,13,13,14,0,7,7,1,,,,,,,,,2,6.78563056600251,119,001,2019_Sep_26_1712,MusicAffectPsychophysiology2019,3.0.5,29.984772563019227,
To what extent did the music make you feel ,FRUSTRATED,30MonoWAV/30MonoT3.wav,2,1,4,15,,,,,0,13,13,14,0,8,8,3,,,,,,,,,3,3.000959018001595,119,001,2019_Sep_26_1712,MusicAffectPsychophysiology2019,3.0.5,29.984772563019227,
To what extent did the music make you feel ,SCARED,30MonoWAV/30MonoT3.wav,2,1,4,15,,,,,0,13,13,14,0,9,9,11,,,,,,,,,1,1.5191986669997277,119,001,2019_Sep_26_1712,MusicAffectPsychophysiology2019,3.0.5,29.984772563019227,
To what extent did the music make you feel ,HAPPY,30MonoWAV/30MonoT3.wav,2,1,4,15,,,,,0,13,13,14,0,10,10,6,,,,,,,,,1,1.785977137998998,119,001,2019_Sep_26_1712,MusicAffectPsychophysiology2019,3.0.5,29.984772563019227,
To what extent did the music make you feel ,GUILTY,30MonoWAV/30MonoT3.wav,2,1,4,15,,,,,0,13,13,14,0,11,11,5,,,,,,,,,1,1.4854607169982046,119,001,2019_Sep_26_1712,MusicAffectPsychophysiology2019,3.0.5,29.984772563019227,
,,30MonoWAV/30MonoT3.wav,2,1,4,15,,,,,0,13,13,14,,,,,,,,,,,,,,,119,001,2019_Sep_26_1712,MusicAffectPsychophysiology2019,3.0.5,29.984772563019227,
To what extent did the music make you feel ,ACTIVE,30MonoWAV/30MonoH3.wav,2,2,1,7,,,,,0,14,14,6,0,0,0,9,,,5,3.1024478180006554,5,1.6514100249987678,3,2.253275515002315,4,6.96111834399926,119,001,2019_Sep_26_1712,MusicAffectPsychophysiology2019,3.0.5,29.984772563019227,
To what extent did the music make you feel ,SAD,30MonoWAV/30MonoH3.wav,2,2,1,7,,,,,0,14,14,6,0,1,1,0,,,,,,,,,1,1.5199227230004908,119,001,2019_Sep_26_1712,MusicAffectPsychophysiology2019,3.0.5,29.984772563019227,
To what extent did the music make you feel ,ANXIOUS ,30MonoWAV/30MonoH3.wav,2,2,1,7,,,,,0,14,14,6,0,2,2,1,,,,,,,,,2,1.2022445330003393,119,001,2019_Sep_26_1712,MusicAffectPsychophysiology2019,3.0.5,29.984772563019227,
To what extent did the music make you feel ,HAPPY,30MonoWAV/30MonoH3.wav,2,2,1,7,,,,,0,14,14,6,0,3,3,6,,,,,,,,,3,1.3007933919980132,119,001,2019_Sep_26_1712,MusicAffectPsychophysiology2019,3.0.5,29.984772563019227,
To what extent did the music make you feel ,TENDER,30MonoWAV/30MonoH3.wav,2,2,1,7,,,,,0,14,14,6,0,4,4,10,,,,,,,,,2,1.3193338220007718,119,001,2019_Sep_26_1712,MusicAffectPsychophysiology2019,3.0.5,29.984772563019227,
To what extent did the music make you feel ,GUILTY,30MonoWAV/30MonoH3.wav,2,2,1,7,,,,,0,14,14,6,0,5,5,5,,,,,,,,,1,2.6857166640002106,119,001,2019_Sep_26_1712,MusicAffectPsychophysiology2019,3.0.5,29.984772563019227,
To what extent did the music make you feel ,FRUSTRATED,30MonoWAV/30MonoH3.wav,2,2,1,7,,,,,0,14,14,6,0,6,6,3,,,,,,,,,1,1.0699577639970812,119,001,2019_Sep_26_1712,MusicAffectPsychophysiology2019,3.0.5,29.984772563019227,
To what extent did the music make you feel ,SCARED,30MonoWAV/30MonoH3.wav,2,2,1,7,,,,,0,14,14,6,0,7,7,11,,,,,,,,,1,2.035207933997299,119,001,2019_Sep_26_1712,MusicAffectPsychophysiology2019,3.0.5,29.984772563019227,
To what extent did the music make you feel ,EXCITED,30MonoWAV/30MonoH3.wav,2,2,1,7,,,,,0,14,14,6,0,8,8,7,,,,,,,,,3,1.4334177040000213,119,001,2019_Sep_26_1712,MusicAffectPsychophysiology2019,3.0.5,29.984772563019227,
To what extent did the music make you feel ,ANGRY,30MonoWAV/30MonoH3.wav,2,2,1,7,,,,,0,14,14,6,0,9,9,2,,,,,,,,,1,1.2185170790035045,119,001,2019_Sep_26_1712,MusicAffectPsychophysiology2019,3.0.5,29.984772563019227,
To what extent did the music make you feel ,ALERT,30MonoWAV/30MonoH3.wav,2,2,1,7,,,,,0,14,14,6,0,10,10,8,,,,,,,,,2,1.3182511869999871,119,001,2019_Sep_26_1712,MusicAffectPsychophysiology2019,3.0.5,29.984772563019227,
To what extent did the music make you feel ,ASHAMED,30MonoWAV/30MonoH3.wav,2,2,1,7,,,,,0,14,14,6,0,11,11,4,,,,,,,,,1,1.2356351499984157,119,001,2019_Sep_26_1712,MusicAffectPsychophysiology2019,3.0.5,29.984772563019227,
,,30MonoWAV/30MonoH3.wav,2,2,1,7,,,,,0,14,14,6,,,,,,,,,,,,,,,119,001,2019_Sep_26_1712,MusicAffectPsychophysiology2019,3.0.5,29.984772563019227,
To what extent did the music make you feel ,ALERT,30MonoWAV/30MonoS2.wav,1,1,3,10,,,,,0,15,15,9,0,0,0,8,,,2,4.601878858000418,1,2.019360592999874,3,1.7861170649994165,1,3.7543928119994234,119,001,2019_Sep_26_1712,MusicAffectPsychophysiology2019,3.0.5,29.984772563019227,
To what extent did the music make you feel ,TENDER,30MonoWAV/30MonoS2.wav,1,1,3,10,,,,,0,15,15,9,0,1,1,10,,,,,,,,,1,2.7678156759975536,119,001,2019_Sep_26_1712,MusicAffectPsychophysiology2019,3.0.5,29.984772563019227,
To what extent did the music make you feel ,SAD,30MonoWAV/30MonoS2.wav,1,1,3,10,,,,,0,15,15,9,0,2,2,0,,,,,,,,,4,1.7348476240003947,119,001,2019_Sep_26_1712,MusicAffectPsychophysiology2019,3.0.5,29.984772563019227,
To what extent did the music make you feel ,ASHAMED,30MonoWAV/30MonoS2.wav,1,1,3,10,,,,,0,15,15,9,0,3,3,4,,,,,,,,,3,2.268750999999611,119,001,2019_Sep_26_1712,MusicAffectPsychophysiology2019,3.0.5,29.984772563019227,
To what extent did the music make you feel ,ANGRY,30MonoWAV/30MonoS2.wav,1,1,3,10,,,,,0,15,15,9,0,4,4,2,,,,,,,,,2,1.2864513070016983,119,001,2019_Sep_26_1712,MusicAffectPsychophysiology2019,3.0.5,29.984772563019227,
To what extent did the music make you feel ,FRUSTRATED,30MonoWAV/30MonoS2.wav,1,1,3,10,,,,,0,15,15,9,0,5,5,3,,,,,,,,,5,2.470305634000397,119,001,2019_Sep_26_1712,MusicAffectPsychophysiology2019,3.0.5,29.984772563019227,
To what extent did the music make you feel ,SCARED,30MonoWAV/30MonoS2.wav,1,1,3,10,,,,,0,15,15,9,0,6,6,11,,,,,,,,,2,3.918385721000959,119,001,2019_Sep_26_1712,MusicAffectPsychophysiology2019,3.0.5,29.984772563019227,
To what extent did the music make you feel ,ANXIOUS ,30MonoWAV/30MonoS2.wav,1,1,3,10,,,,,0,15,15,9,0,7,7,1,,,,,,,,,1,1.3355107589995896,119,001,2019_Sep_26_1712,MusicAffectPsychophysiology2019,3.0.5,29.984772563019227,
To what extent did the music make you feel ,EXCITED,30MonoWAV/30MonoS2.wav,1,1,3,10,,,,,0,15,15,9,0,8,8,7,,,,,,,,,1,1.5361497390003933,119,001,2019_Sep_26_1712,MusicAffectPsychophysiology2019,3.0.5,29.984772563019227,
To what extent did the music make you feel ,ACTIVE,30MonoWAV/30MonoS2.wav,1,1,3,10,,,,,0,15,15,9,0,9,9,9,,,,,,,,,1,0.8698498100020515,119,001,2019_Sep_26_1712,MusicAffectPsychophysiology2019,3.0.5,29.984772563019227,
To what extent did the music make you feel ,GUILTY,30MonoWAV/30MonoS2.wav,1,1,3,10,,,,,0,15,15,9,0,10,10,5,,,,,,,,,3,2.051369442997384,119,001,2019_Sep_26_1712,MusicAffectPsychophysiology2019,3.0.5,29.984772563019227,
To what extent did the music make you feel ,HAPPY,30MonoWAV/30MonoS2.wav,1,1,3,10,,,,,0,15,15,9,0,11,11,6,,,,,,,,,1,3.4685063179967983,119,001,2019_Sep_26_1712,MusicAffectPsychophysiology2019,3.0.5,29.984772563019227,
,,30MonoWAV/30MonoS2.wav,1,1,3,10,,,,,0,15,15,9,,,,,,,,,,,,,,,119,001,2019_Sep_26_1712,MusicAffectPsychophysiology2019,3.0.5,29.984772563019227,
To what extent did the music make you feel ,ANXIOUS ,30MonoWAV/30MonoS4.wav,1,1,3,12,,,,,1,0,16,11,0,0,0,1,,,1,4.419081378000556,2,1.3522374130006938,4,2.469200727999123,1,3.128865405000397,119,001,2019_Sep_26_1712,MusicAffectPsychophysiology2019,3.0.5,29.984772563019227,
To what extent did the music make you feel ,EXCITED,30MonoWAV/30MonoS4.wav,1,1,3,12,,,,,1,0,16,11,0,1,1,7,,,,,,,,,1,1.1349066160000802,119,001,2019_Sep_26_1712,MusicAffectPsychophysiology2019,3.0.5,29.984772563019227,
To what extent did the music make you feel ,ASHAMED,30MonoWAV/30MonoS4.wav,1,1,3,12,,,,,1,0,16,11,0,2,2,4,,,,,,,,,2,1.2021720000011555,119,001,2019_Sep_26_1712,MusicAffectPsychophysiology2019,3.0.5,29.984772563019227,
To what extent did the music make you feel ,FRUSTRATED,30MonoWAV/30MonoS4.wav,1,1,3,12,,,,,1,0,16,11,0,3,3,3,,,,,,,,,5,1.9544627860013861,119,001,2019_Sep_26_1712,MusicAffectPsychophysiology2019,3.0.5,29.984772563019227,
To what extent did the music make you feel ,ACTIVE,30MonoWAV/30MonoS4.wav,1,1,3,12,,,,,1,0,16,11,0,4,4,9,,,,,,,,,1,2.468404641000234,119,001,2019_Sep_26_1712,MusicAffectPsychophysiology2019,3.0.5,29.984772563019227,
To what extent did the music make you feel ,HAPPY,30MonoWAV/30MonoS4.wav,1,1,3,12,,,,,1,0,16,11,0,5,5,6,,,,,,,,,1,1.0194254649977665,119,001,2019_Sep_26_1712,MusicAffectPsychophysiology2019,3.0.5,29.984772563019227,
To what extent did the music make you feel ,ANGRY,30MonoWAV/30MonoS4.wav,1,1,3,12,,,,,1,0,16,11,0,6,6,2,,,,,,,,,3,3.2683144259972323,119,001,2019_Sep_26_1712,MusicAffectPsychophysiology2019,3.0.5,29.984772563019227,
To what extent did the music make you feel ,ALERT,30MonoWAV/30MonoS4.wav,1,1,3,12,,,,,1,0,16,11,0,7,7,8,,,,,,,,,1,1.4032814370002598,119,001,2019_Sep_26_1712,MusicAffectPsychophysiology2019,3.0.5,29.984772563019227,
To what extent did the music make you feel ,SAD,30MonoWAV/30MonoS4.wav,1,1,3,12,,,,,1,0,16,11,0,8,8,0,,,,,,,,,4,1.7359422459994676,119,001,2019_Sep_26_1712,MusicAffectPsychophysiology2019,3.0.5,29.984772563019227,
To what extent did the music make you feel ,GUILTY,30MonoWAV/30MonoS4.wav,1,1,3,12,,,,,1,0,16,11,0,9,9,5,,,,,,,,,3,7.267995088001044,119,001,2019_Sep_26_1712,MusicAffectPsychophysiology2019,3.0.5,29.984772563019227,
To what extent did the music make you feel ,TENDER,30MonoWAV/30MonoS4.wav,1,1,3,12,,,,,1,0,16,11,0,10,10,10,,,,,,,,,2,2.152251666000666,119,001,2019_Sep_26_1712,MusicAffectPsychophysiology2019,3.0.5,29.984772563019227,
To what extent did the music make you feel ,SCARED,30MonoWAV/30MonoS4.wav,1,1,3,12,,,,,1,0,16,11,0,11,11,11,,,,,,,,,1,1.1858264509974106,119,001,2019_Sep_26_1712,MusicAffectPsychophysiology2019,3.0.5,29.984772563019227,
,,30MonoWAV/30MonoS4.wav,1,1,3,12,,,,,1,0,16,11,,,,,,,,,,,,,,,119,001,2019_Sep_26_1712,MusicAffectPsychophysiology2019,3.0.5,29.984772563019227,
To what extent did the music make you feel ,SCARED,30MonoWAV/30MonoF1.wav,1,2,2,1,,,,,1,1,17,0,0,0,0,11,,,3,3.2855413510005747,2,1.0666297009993286,2,1.817943264999485,4,1.9703460529999575,119,001,2019_Sep_26_1712,MusicAffectPsychophysiology2019,3.0.5,29.984772563019227,
To what extent did the music make you feel ,ACTIVE,30MonoWAV/30MonoF1.wav,1,2,2,1,,,,,1,1,17,0,0,1,1,9,,,,,,,,,2,2.3530159150031977,119,001,2019_Sep_26_1712,MusicAffectPsychophysiology2019,3.0.5,29.984772563019227,
To what extent did the music make you feel ,SAD,30MonoWAV/30MonoF1.wav,1,2,2,1,,,,,1,1,17,0,0,2,2,0,,,,,,,,,2,1.834866378998413,119,001,2019_Sep_26_1712,MusicAffectPsychophysiology2019,3.0.5,29.984772563019227,
To what extent did the music make you feel ,ASHAMED,30MonoWAV/30MonoF1.wav,1,2,2,1,,,,,1,1,17,0,0,3,3,4,,,,,,,,,1,1.3371334969997406,119,001,2019_Sep_26_1712,MusicAffectPsychophysiology2019,3.0.5,29.984772563019227,
To what extent did the music make you feel ,HAPPY,30MonoWAV/30MonoF1.wav,1,2,2,1,,,,,1,1,17,0,0,4,4,6,,,,,,,,,1,1.1190992390002066,119,001,2019_Sep_26_1712,MusicAffectPsychophysiology2019,3.0.5,29.984772563019227,
To what extent did the music make you feel ,TENDER,30MonoWAV/30MonoF1.wav,1,2,2,1,,,,,1,1,17,0,0,5,5,10,,,,,,,,,3,1.3159926620028273,119,001,2019_Sep_26_1712,MusicAffectPsychophysiology2019,3.0.5,29.984772563019227,
To what extent did the music make you feel ,ANGRY,30MonoWAV/30MonoF1.wav,1,2,2,1,,,,,1,1,17,0,0,6,6,2,,,,,,,,,3,3.4868188250002277,119,001,2019_Sep_26_1712,MusicAffectPsychophysiology2019,3.0.5,29.984772563019227,
To what extent did the music make you feel ,GUILTY,30MonoWAV/30MonoF1.wav,1,2,2,1,,,,,1,1,17,0,0,7,7,5,,,,,,,,,1,1.834960731001047,119,001,2019_Sep_26_1712,MusicAffectPsychophysiology2019,3.0.5,29.984772563019227,
To what extent did the music make you feel ,EXCITED,30MonoWAV/30MonoF1.wav,1,2,2,1,,,,,1,1,17,0,0,8,8,7,,,,,,,,,3,3.1352432769999723,119,001,2019_Sep_26_1712,MusicAffectPsychophysiology2019,3.0.5,29.984772563019227,
To what extent did the music make you feel ,ANXIOUS ,30MonoWAV/30MonoF1.wav,1,2,2,1,,,,,1,1,17,0,0,9,9,1,,,,,,,,,4,1.6025298029999249,119,001,2019_Sep_26_1712,MusicAffectPsychophysiology2019,3.0.5,29.984772563019227,
To what extent did the music make you feel ,FRUSTRATED,30MonoWAV/30MonoF1.wav,1,2,2,1,,,,,1,1,17,0,0,10,10,3,,,,,,,,,2,1.3864220780014875,119,001,2019_Sep_26_1712,MusicAffectPsychophysiology2019,3.0.5,29.984772563019227,
To what extent did the music make you feel ,ALERT,30MonoWAV/30MonoF1.wav,1,2,2,1,,,,,1,1,17,0,0,11,11,8,,,,,,,,,5,2.036147204998997,119,001,2019_Sep_26_1712,MusicAffectPsychophysiology2019,3.0.5,29.984772563019227,
,,30MonoWAV/30MonoF1.wav,1,2,2,1,,,,,1,1,17,0,,,,,,,,,,,,,,,119,001,2019_Sep_26_1712,MusicAffectPsychophysiology2019,3.0.5,29.984772563019227,
To what extent did the music make you feel ,ALERT,30MonoWAV/30MonoF4.wav,1,2,2,4,,,,,1,2,18,3,0,0,0,8,,,2,3.1360151230001065,2,1.3197590519994264,2,1.8852510469987465,5,3.6697805840012734,119,001,2019_Sep_26_1712,MusicAffectPsychophysiology2019,3.0.5,29.984772563019227,
To what extent did the music make you feel ,ANGRY,30MonoWAV/30MonoF4.wav,1,2,2,4,,,,,1,2,18,3,0,1,1,2,,,,,,,,,4,1.3197313550008403,119,001,2019_Sep_26_1712,MusicAffectPsychophysiology2019,3.0.5,29.984772563019227,
To what extent did the music make you feel ,EXCITED,30MonoWAV/30MonoF4.wav,1,2,2,4,,,,,1,2,18,3,0,2,2,7,,,,,,,,,2,1.6187423170013062,119,001,2019_Sep_26_1712,MusicAffectPsychophysiology2019,3.0.5,29.984772563019227,
To what extent did the music make you feel ,ANXIOUS ,30MonoWAV/30MonoF4.wav,1,2,2,4,,,,,1,2,18,3,0,3,3,1,,,,,,,,,4,1.3189089650004462,119,001,2019_Sep_26_1712,MusicAffectPsychophysiology2019,3.0.5,29.984772563019227,
To what extent did the music make you feel ,SAD,30MonoWAV/30MonoF4.wav,1,2,2,4,,,,,1,2,18,3,0,4,4,0,,,,,,,,,3,1.519280387001345,119,001,2019_Sep_26_1712,MusicAffectPsychophysiology2019,3.0.5,29.984772563019227,
To what extent did the music make you feel ,FRUSTRATED,30MonoWAV/30MonoF4.wav,1,2,2,4,,,,,1,2,18,3,0,5,5,3,,,,,,,,,3,3.3856994559973828,119,001,2019_Sep_26_1712,MusicAffectPsychophysiology2019,3.0.5,29.984772563019227,
To what extent did the music make you feel ,ASHAMED,30MonoWAV/30MonoF4.wav,1,2,2,4,,,,,1,2,18,3,0,6,6,4,,,,,,,,,1,4.551528840998799,119,001,2019_Sep_26_1712,MusicAffectPsychophysiology2019,3.0.5,29.984772563019227,
To what extent did the music make you feel ,ACTIVE,30MonoWAV/30MonoF4.wav,1,2,2,4,,,,,1,2,18,3,0,7,7,9,,,,,,,,,2,1.3002247330005048,119,001,2019_Sep_26_1712,MusicAffectPsychophysiology2019,3.0.5,29.984772563019227,
To what extent did the music make you feel ,GUILTY,30MonoWAV/30MonoF4.wav,1,2,2,4,,,,,1,2,18,3,0,8,8,5,,,,,,,,,1,1.0188634149999416,119,001,2019_Sep_26_1712,MusicAffectPsychophysiology2019,3.0.5,29.984772563019227,
To what extent did the music make you feel ,HAPPY,30MonoWAV/30MonoF4.wav,1,2,2,4,,,,,1,2,18,3,0,9,9,6,,,,,,,,,1,0.9527472929985379,119,001,2019_Sep_26_1712,MusicAffectPsychophysiology2019,3.0.5,29.984772563019227,
To what extent did the music make you feel ,TENDER,30MonoWAV/30MonoF4.wav,1,2,2,4,,,,,1,2,18,3,0,10,10,10,,,,,,,,,2,1.401282460999937,119,001,2019_Sep_26_1712,MusicAffectPsychophysiology2019,3.0.5,29.984772563019227,
To what extent did the music make you feel ,SCARED,30MonoWAV/30MonoF4.wav,1,2,2,4,,,,,1,2,18,3,0,11,11,11,,,,,,,,,5,1.8859303780009213,119,001,2019_Sep_26_1712,MusicAffectPsychophysiology2019,3.0.5,29.984772563019227,
,,30MonoWAV/30MonoF4.wav,1,2,2,4,,,,,1,2,18,3,,,,,,,,,,,,,,,119,001,2019_Sep_26_1712,MusicAffectPsychophysiology2019,3.0.5,29.984772563019227,
To what extent did the music make you feel ,ACTIVE,30MonoWAV/30MonoS3.wav,1,1,3,11,,,,,1,3,19,10,0,0,0,9,,,2,5.068530757002009,1,2.384663081000326,2,4.417420199999469,1,1.638777221996861,119,001,2019_Sep_26_1712,MusicAffectPsychophysiology2019,3.0.5,29.984772563019227,
To what extent did the music make you feel ,TENDER,30MonoWAV/30MonoS3.wav,1,1,3,11,,,,,1,3,19,10,0,1,1,10,,,,,,,,,2,1.0668255109994789,119,001,2019_Sep_26_1712,MusicAffectPsychophysiology2019,3.0.5,29.984772563019227,
To what extent did the music make you feel ,ANXIOUS ,30MonoWAV/30MonoS3.wav,1,1,3,11,,,,,1,3,19,10,0,2,2,1,,,,,,,,,3,2.68548687600196,119,001,2019_Sep_26_1712,MusicAffectPsychophysiology2019,3.0.5,29.984772563019227,
To what extent did the music make you feel ,HAPPY,30MonoWAV/30MonoS3.wav,1,1,3,11,,,,,1,3,19,10,0,3,3,6,,,,,,,,,1,0.9685490539995953,119,001,2019_Sep_26_1712,MusicAffectPsychophysiology2019,3.0.5,29.984772563019227,
To what extent did the music make you feel ,ANGRY,30MonoWAV/30MonoS3.wav,1,1,3,11,,,,,1,3,19,10,0,4,4,2,,,,,,,,,4,2.186005429000943,119,001,2019_Sep_26_1712,MusicAffectPsychophysiology2019,3.0.5,29.984772563019227,
To what extent did the music make you feel ,ASHAMED,30MonoWAV/30MonoS3.wav,1,1,3,11,,,,,1,3,19,10,0,5,5,4,,,,,,,,,3,3.2840031329978956,119,001,2019_Sep_26_1712,MusicAffectPsychophysiology2019,3.0.5,29.984772563019227,
To what extent did the music make you feel ,SCARED,30MonoWAV/30MonoS3.wav,1,1,3,11,,,,,1,3,19,10,0,6,6,11,,,,,,,,,3,2.367101059997367,119,001,2019_Sep_26_1712,MusicAffectPsychophysiology2019,3.0.5,29.984772563019227,
To what extent did the music make you feel ,GUILTY,30MonoWAV/30MonoS3.wav,1,1,3,11,,,,,1,3,19,10,0,7,7,5,,,,,,,,,2,1.535672642999998,119,001,2019_Sep_26_1712,MusicAffectPsychophysiology2019,3.0.5,29.984772563019227,
To what extent did the music make you feel ,FRUSTRATED,30MonoWAV/30MonoS3.wav,1,1,3,11,,,,,1,3,19,10,0,8,8,3,,,,,,,,,3,1.9541740259992366,119,001,2019_Sep_26_1712,MusicAffectPsychophysiology2019,3.0.5,29.984772563019227,
To what extent did the music make you feel ,EXCITED,30MonoWAV/30MonoS3.wav,1,1,3,11,,,,,1,3,19,10,0,9,9,7,,,,,,,,,1,2.3524827039982483,119,001,2019_Sep_26_1712,MusicAffectPsychophysiology2019,3.0.5,29.984772563019227,
To what extent did the music make you feel ,ALERT,30MonoWAV/30MonoS3.wav,1,1,3,11,,,,,1,3,19,10,0,10,10,8,,,,,,,,,2,6.668700499998522,119,001,2019_Sep_26_1712,MusicAffectPsychophysiology2019,3.0.5,29.984772563019227,
To what extent did the music make you feel ,SAD,30MonoWAV/30MonoS3.wav,1,1,3,11,,,,,1,3,19,10,0,11,11,0,,,,,,,,,4,1.5689224729976559,119,001,2019_Sep_26_1712,MusicAffectPsychophysiology2019,3.0.5,29.984772563019227,
,,30MonoWAV/30MonoS3.wav,1,1,3,11,,,,,1,3,19,10,,,,,,,,,,,,,,,119,001,2019_Sep_26_1712,MusicAffectPsychophysiology2019,3.0.5,29.984772563019227,
To what extent did the music make you feel ,TENDER,30MonoWAV/30MonoS1.wav,1,1,3,9,,,,,1,4,20,8,0,0,0,10,,,2,4.401307200001611,2,3.085407913000381,3,7.334712949003006,3,1.2121406690021104,119,001,2019_Sep_26_1712,MusicAffectPsychophysiology2019,3.0.5,29.984772563019227,
To what extent did the music make you feel ,HAPPY,30MonoWAV/30MonoS1.wav,1,1,3,9,,,,,1,4,20,8,0,1,1,6,,,,,,,,,2,1.1170349179992627,119,001,2019_Sep_26_1712,MusicAffectPsychophysiology2019,3.0.5,29.984772563019227,
To what extent did the music make you feel ,ASHAMED,30MonoWAV/30MonoS1.wav,1,1,3,9,,,,,1,4,20,8,0,2,2,4,,,,,,,,,2,1.8529552559994045,119,001,2019_Sep_26_1712,MusicAffectPsychophysiology2019,3.0.5,29.984772563019227,
To what extent did the music make you feel ,EXCITED,30MonoWAV/30MonoS1.wav,1,1,3,9,,,,,1,4,20,8,0,3,3,7,,,,,,,,,1,3.302015687000676,119,001,2019_Sep_26_1712,MusicAffectPsychophysiology2019,3.0.5,29.984772563019227,
To what extent did the music make you feel ,ANGRY,30MonoWAV/30MonoS1.wav,1,1,3,9,,,,,1,4,20,8,0,4,4,2,,,,,,,,,3,2.602809159001481,119,001,2019_Sep_26_1712,MusicAffectPsychophysiology2019,3.0.5,29.984772563019227,
To what extent did the music make you feel ,ACTIVE,30MonoWAV/30MonoS1.wav,1,1,3,9,,,,,1,4,20,8,0,5,5,9,,,,,,,,,1,1.135265380002238,119,001,2019_Sep_26_1712,MusicAffectPsychophysiology2019,3.0.5,29.984772563019227,
To what extent did the music make you feel ,GUILTY,30MonoWAV/30MonoS1.wav,1,1,3,9,,,,,1,4,20,8,0,6,6,5,,,,,,,,,3,1.2834909379998862,119,001,2019_Sep_26_1712,MusicAffectPsychophysiology2019,3.0.5,29.984772563019227,
To what extent did the music make you feel ,FRUSTRATED,30MonoWAV/30MonoS1.wav,1,1,3,9,,,,,1,4,20,8,0,7,7,3,,,,,,,,,5,1.4861694710016309,119,001,2019_Sep_26_1712,MusicAffectPsychophysiology2019,3.0.5,29.984772563019227,
To what extent did the music make you feel ,ANXIOUS ,30MonoWAV/30MonoS1.wav,1,1,3,9,,,,,1,4,20,8,0,8,8,1,,,,,,,,,2,1.9681937510031275,119,001,2019_Sep_26_1712,MusicAffectPsychophysiology2019,3.0.5,29.984772563019227,
To what extent did the music make you feel ,SAD,30MonoWAV/30MonoS1.wav,1,1,3,9,,,,,1,4,20,8,0,9,9,0,,,,,,,,,5,2.26884045299812,119,001,2019_Sep_26_1712,MusicAffectPsychophysiology2019,3.0.5,29.984772563019227,
To what extent did the music make you feel ,ALERT,30MonoWAV/30MonoS1.wav,1,1,3,9,,,,,1,4,20,8,0,10,10,8,,,,,,,,,2,1.4531636249994335,119,001,2019_Sep_26_1712,MusicAffectPsychophysiology2019,3.0.5,29.984772563019227,
To what extent did the music make you feel ,SCARED,30MonoWAV/30MonoS1.wav,1,1,3,9,,,,,1,4,20,8,0,11,11,11,,,,,,,,,2,3.1990621570002986,119,001,2019_Sep_26_1712,MusicAffectPsychophysiology2019,3.0.5,29.984772563019227,
,,30MonoWAV/30MonoS1.wav,1,1,3,9,,,,,1,4,20,8,,,,,,,,,,,,,,,119,001,2019_Sep_26_1712,MusicAffectPsychophysiology2019,3.0.5,29.984772563019227,
To what extent did the music make you feel ,FRUSTRATED,30MonoWAV/30MonoT1.wav,2,1,4,13,,,,,1,5,21,12,0,0,0,3,,,3,5.201346191999619,4,1.868773736001458,3,3.5198302440003317,2,4.6847082509993925,119,001,2019_Sep_26_1712,MusicAffectPsychophysiology2019,3.0.5,29.984772563019227,
To what extent did the music make you feel ,ALERT,30MonoWAV/30MonoT1.wav,2,1,4,13,,,,,1,5,21,12,0,1,1,8,,,,,,,,,1,0.9869005939981434,119,001,2019_Sep_26_1712,MusicAffectPsychophysiology2019,3.0.5,29.984772563019227,
To what extent did the music make you feel ,EXCITED,30MonoWAV/30MonoT1.wav,2,1,4,13,,,,,1,5,21,12,0,2,2,7,,,,,,,,,1,2.01835614599986,119,001,2019_Sep_26_1712,MusicAffectPsychophysiology2019,3.0.5,29.984772563019227,
To what extent did the music make you feel ,ACTIVE,30MonoWAV/30MonoT1.wav,2,1,4,13,,,,,1,5,21,12,0,3,3,9,,,,,,,,,3,2.11911092399896,119,001,2019_Sep_26_1712,MusicAffectPsychophysiology2019,3.0.5,29.984772563019227,
To what extent did the music make you feel ,GUILTY,30MonoWAV/30MonoT1.wav,2,1,4,13,,,,,1,5,21,12,0,4,4,5,,,,,,,,,2,1.8686932560012792,119,001,2019_Sep_26_1712,MusicAffectPsychophysiology2019,3.0.5,29.984772563019227,
To what extent did the music make you feel ,SAD,30MonoWAV/30MonoT1.wav,2,1,4,13,,,,,1,5,21,12,0,5,5,0,,,,,,,,,1,1.78434580099929,119,001,2019_Sep_26_1712,MusicAffectPsychophysiology2019,3.0.5,29.984772563019227,
To what extent did the music make you feel ,HAPPY,30MonoWAV/30MonoT1.wav,2,1,4,13,,,,,1,5,21,12,0,6,6,6,,,,,,,,,3,3.4532252740027616,119,001,2019_Sep_26_1712,MusicAffectPsychophysiology2019,3.0.5,29.984772563019227,
To what extent did the music make you feel ,ANXIOUS ,30MonoWAV/30MonoT1.wav,2,1,4,13,,,,,1,5,21,12,0,7,7,1,,,,,,,,,1,1.7853349249999155,119,001,2019_Sep_26_1712,MusicAffectPsychophysiology2019,3.0.5,29.984772563019227,
To what extent did the music make you feel ,TENDER,30MonoWAV/30MonoT1.wav,2,1,4,13,,,,,1,5,21,12,0,8,8,10,,,,,,,,,2,1.3525849479992758,119,001,2019_Sep_26_1712,MusicAffectPsychophysiology2019,3.0.5,29.984772563019227,
To what extent did the music make you feel ,ASHAMED,30MonoWAV/30MonoT1.wav,2,1,4,13,,,,,1,5,21,12,0,9,9,4,,,,,,,,,2,9.468858142998215,119,001,2019_Sep_26_1712,MusicAffectPsychophysiology2019,3.0.5,29.984772563019227,
To what extent did the music make you feel ,SCARED,30MonoWAV/30MonoT1.wav,2,1,4,13,,,,,1,5,21,12,0,10,10,11,,,,,,,,,1,1.083810011001333,119,001,2019_Sep_26_1712,MusicAffectPsychophysiology2019,3.0.5,29.984772563019227,
To what extent did the music make you feel ,ANGRY,30MonoWAV/30MonoT1.wav,2,1,4,13,,,,,1,5,21,12,0,11,11,2,,,,,,,,,1,0.9855932630016468,119,001,2019_Sep_26_1712,MusicAffectPsychophysiology2019,3.0.5,29.984772563019227,
,,30MonoWAV/30MonoT1.wav,2,1,4,13,,,,,1,5,21,12,,,,,,,,,,,,,,,119,001,2019_Sep_26_1712,MusicAffectPsychophysiology2019,3.0.5,29.984772563019227,
To what extent did the music make you feel ,HAPPY,30MonoWAV/30MonoH4.wav,2,2,1,8,,,,,1,6,22,7,0,0,0,6,,,5,3.2521788679987367,5,3.002201168997999,4,1.1354258050014323,4,1.2465982229987276,119,001,2019_Sep_26_1712,MusicAffectPsychophysiology2019,3.0.5,29.984772563019227,
To what extent did the music make you feel ,ASHAMED,30MonoWAV/30MonoH4.wav,2,2,1,8,,,,,1,6,22,7,0,1,1,4,,,,,,,,,1,1.435427805998188,119,001,2019_Sep_26_1712,MusicAffectPsychophysiology2019,3.0.5,29.984772563019227,
To what extent did the music make you feel ,ANXIOUS ,30MonoWAV/30MonoH4.wav,2,2,1,8,,,,,1,6,22,7,0,2,2,1,,,,,,,,,1,1.484804793002695,119,001,2019_Sep_26_1712,MusicAffectPsychophysiology2019,3.0.5,29.984772563019227,
To what extent did the music make you feel ,SAD,30MonoWAV/30MonoH4.wav,2,2,1,8,,,,,1,6,22,7,0,3,3,0,,,,,,,,,1,1.0025159340002574,119,001,2019_Sep_26_1712,MusicAffectPsychophysiology2019,3.0.5,29.984772563019227,
To what extent did the music make you feel ,EXCITED,30MonoWAV/30MonoH4.wav,2,2,1,8,,,,,1,6,22,7,0,4,4,7,,,,,,,,,4,2.185009954999259,119,001,2019_Sep_26_1712,MusicAffectPsychophysiology2019,3.0.5,29.984772563019227,
To what extent did the music make you feel ,TENDER,30MonoWAV/30MonoH4.wav,2,2,1,8,,,,,1,6,22,7,0,5,5,10,,,,,,,,,3,1.0687219120009104,119,001,2019_Sep_26_1712,MusicAffectPsychophysiology2019,3.0.5,29.984772563019227,
To what extent did the music make you feel ,SCARED,30MonoWAV/30MonoH4.wav,2,2,1,8,,,,,1,6,22,7,0,6,6,11,,,,,,,,,1,1.5685404840005504,119,001,2019_Sep_26_1712,MusicAffectPsychophysiology2019,3.0.5,29.984772563019227,
To what extent did the music make you feel ,ALERT,30MonoWAV/30MonoH4.wav,2,2,1,8,,,,,1,6,22,7,0,7,7,8,,,,,,,,,2,1.536041089999344,119,001,2019_Sep_26_1712,MusicAffectPsychophysiology2019,3.0.5,29.984772563019227,
To what extent did the music make you feel ,FRUSTRATED,30MonoWAV/30MonoH4.wav,2,2,1,8,,,,,1,6,22,7,0,8,8,3,,,,,,,,,1,1.2023988370019651,119,001,2019_Sep_26_1712,MusicAffectPsychophysiology2019,3.0.5,29.984772563019227,
To what extent did the music make you feel ,ACTIVE,30MonoWAV/30MonoH4.wav,2,2,1,8,,,,,1,6,22,7,0,9,9,9,,,,,,,,,5,1.7692570369981695,119,001,2019_Sep_26_1712,MusicAffectPsychophysiology2019,3.0.5,29.984772563019227,
To what extent did the music make you feel ,ANGRY,30MonoWAV/30MonoH4.wav,2,2,1,8,,,,,1,6,22,7,0,10,10,2,,,,,,,,,1,1.3188881690002745,119,001,2019_Sep_26_1712,MusicAffectPsychophysiology2019,3.0.5,29.984772563019227,
To what extent did the music make you feel ,GUILTY,30MonoWAV/30MonoH4.wav,2,2,1,8,,,,,1,6,22,7,0,11,11,5,,,,,,,,,1,1.4195003130007535,119,001,2019_Sep_26_1712,MusicAffectPsychophysiology2019,3.0.5,29.984772563019227,
,,30MonoWAV/30MonoH4.wav,2,2,1,8,,,,,1,6,22,7,,,,,,,,,,,,,,,119,001,2019_Sep_26_1712,MusicAffectPsychophysiology2019,3.0.5,29.984772563019227,
To what extent did the music make you feel ,HAPPY,30MonoWAV/30MonoT2.wav,2,1,4,14,,,,,1,7,23,13,0,0,0,6,,,4,3.2514422630010813,3,2.351973665001424,4,1.0521411759982584,4,1.2712040959995647,119,001,2019_Sep_26_1712,MusicAffectPsychophysiology2019,3.0.5,29.984772563019227,
To what extent did the music make you feel ,ACTIVE,30MonoWAV/30MonoT2.wav,2,1,4,14,,,,,1,7,23,13,0,1,1,9,,,,,,,,,3,1.285714163997909,119,001,2019_Sep_26_1712,MusicAffectPsychophysiology2019,3.0.5,29.984772563019227,
To what extent did the music make you feel ,ANGRY,30MonoWAV/30MonoT2.wav,2,1,4,14,,,,,1,7,23,13,0,2,2,2,,,,,,,,,1,1.2198510259986506,119,001,2019_Sep_26_1712,MusicAffectPsychophysiology2019,3.0.5,29.984772563019227,
To what extent did the music make you feel ,TENDER,30MonoWAV/30MonoT2.wav,2,1,4,14,,,,,1,7,23,13,0,3,3,10,,,,,,,,,3,1.602738503999717,119,001,2019_Sep_26_1712,MusicAffectPsychophysiology2019,3.0.5,29.984772563019227,
To what extent did the music make you feel ,ANXIOUS ,30MonoWAV/30MonoT2.wav,2,1,4,14,,,,,1,7,23,13,0,4,4,1,,,,,,,,,1,2.3184055669989903,119,001,2019_Sep_26_1712,MusicAffectPsychophysiology2019,3.0.5,29.984772563019227,
To what extent did the music make you feel ,SAD,30MonoWAV/30MonoT2.wav,2,1,4,14,,,,,1,7,23,13,0,5,5,0,,,,,,,,,2,2.700569564000034,119,001,2019_Sep_26_1712,MusicAffectPsychophysiology2019,3.0.5,29.984772563019227,
To what extent did the music make you feel ,GUILTY,30MonoWAV/30MonoT2.wav,2,1,4,14,,,,,1,7,23,13,0,6,6,5,,,,,,,,,2,1.385423804000311,119,001,2019_Sep_26_1712,MusicAffectPsychophysiology2019,3.0.5,29.984772563019227,
To what extent did the music make you feel ,FRUSTRATED,30MonoWAV/30MonoT2.wav,2,1,4,14,,,,,1,7,23,13,0,7,7,3,,,,,,,,,1,5.8520613120017515,119,001,2019_Sep_26_1712,MusicAffectPsychophysiology2019,3.0.5,29.984772563019227,
To what extent did the music make you feel ,ASHAMED,30MonoWAV/30MonoT2.wav,2,1,4,14,,,,,1,7,23,13,0,8,8,4,,,,,,,,,1,2.0669958679973206,119,001,2019_Sep_26_1712,MusicAffectPsychophysiology2019,3.0.5,29.984772563019227,
To what extent did the music make you feel ,ALERT,30MonoWAV/30MonoT2.wav,2,1,4,14,,,,,1,7,23,13,0,9,9,8,,,,,,,,,1,0.9692221220029751,119,001,2019_Sep_26_1712,MusicAffectPsychophysiology2019,3.0.5,29.984772563019227,
To what extent did the music make you feel ,SCARED,30MonoWAV/30MonoT2.wav,2,1,4,14,,,,,1,7,23,13,0,10,10,11,,,,,,,,,1,1.1886861260027217,119,001,2019_Sep_26_1712,MusicAffectPsychophysiology2019,3.0.5,29.984772563019227,
To what extent did the music make you feel ,EXCITED,30MonoWAV/30MonoT2.wav,2,1,4,14,,,,,1,7,23,13,0,11,11,7,,,,,,,,,3,2.1848414599990065,119,001,2019_Sep_26_1712,MusicAffectPsychophysiology2019,3.0.5,29.984772563019227,
,,30MonoWAV/30MonoT2.wav,2,1,4,14,,,,,1,7,23,13,,,,,,,,,,,,,,,119,001,2019_Sep_26_1712,MusicAffectPsychophysiology2019,3.0.5,29.984772563019227,
To what extent did the music make you feel ,SAD,30MonoWAV/30MonoH1.wav,2,2,1,5,,,,,1,8,24,4,0,0,0,0,,,4,2.8823488140005793,4,1.384787368002435,4,1.1496054380004352,1,1.5020761550003954,119,001,2019_Sep_26_1712,MusicAffectPsychophysiology2019,3.0.5,29.984772563019227,
To what extent did the music make you feel ,ALERT,30MonoWAV/30MonoH1.wav,2,2,1,5,,,,,1,8,24,4,0,1,1,8,,,,,,,,,1,0.9359485480017611,119,001,2019_Sep_26_1712,MusicAffectPsychophysiology2019,3.0.5,29.984772563019227,
To what extent did the music make you feel ,EXCITED,30MonoWAV/30MonoH1.wav,2,2,1,5,,,,,1,8,24,4,0,2,2,7,,,,,,,,,4,1.5698208430003433,119,001,2019_Sep_26_1712,MusicAffectPsychophysiology2019,3.0.5,29.984772563019227,
To what extent did the music make you feel ,FRUSTRATED,30MonoWAV/30MonoH1.wav,2,2,1,5,,,,,1,8,24,4,0,3,3,3,,,,,,,,,1,1.4315992080009892,119,001,2019_Sep_26_1712,MusicAffectPsychophysiology2019,3.0.5,29.984772563019227,
To what extent did the music make you feel ,ANXIOUS ,30MonoWAV/30MonoH1.wav,2,2,1,5,,,,,1,8,24,4,0,4,4,1,,,,,,,,,1,3.4527395629993407,119,001,2019_Sep_26_1712,MusicAffectPsychophysiology2019,3.0.5,29.984772563019227,
To what extent did the music make you feel ,GUILTY,30MonoWAV/30MonoH1.wav,2,2,1,5,,,,,1,8,24,4,0,5,5,5,,,,,,,,,1,0.9211688750001485,119,001,2019_Sep_26_1712,MusicAffectPsychophysiology2019,3.0.5,29.984772563019227,
To what extent did the music make you feel ,ANGRY,30MonoWAV/30MonoH1.wav,2,2,1,5,,,,,1,8,24,4,0,6,6,2,,,,,,,,,1,1.0136846159984998,119,001,2019_Sep_26_1712,MusicAffectPsychophysiology2019,3.0.5,29.984772563019227,
To what extent did the music make you feel ,ACTIVE,30MonoWAV/30MonoH1.wav,2,2,1,5,,,,,1,8,24,4,0,7,7,9,,,,,,,,,4,2.785342541999853,119,001,2019_Sep_26_1712,MusicAffectPsychophysiology2019,3.0.5,29.984772563019227,
To what extent did the music make you feel ,HAPPY,30MonoWAV/30MonoH1.wav,2,2,1,5,,,,,1,8,24,4,0,8,8,6,,,,,,,,,4,1.6831496439990588,119,001,2019_Sep_26_1712,MusicAffectPsychophysiology2019,3.0.5,29.984772563019227,
To what extent did the music make you feel ,ASHAMED,30MonoWAV/30MonoH1.wav,2,2,1,5,,,,,1,8,24,4,0,9,9,4,,,,,,,,,1,3.80192957500185,119,001,2019_Sep_26_1712,MusicAffectPsychophysiology2019,3.0.5,29.984772563019227,
To what extent did the music make you feel ,SCARED,30MonoWAV/30MonoH1.wav,2,2,1,5,,,,,1,8,24,4,0,10,10,11,,,,,,,,,1,1.3523040079999191,119,001,2019_Sep_26_1712,MusicAffectPsychophysiology2019,3.0.5,29.984772563019227,
To what extent did the music make you feel ,TENDER,30MonoWAV/30MonoH1.wav,2,2,1,5,,,,,1,8,24,4,0,11,11,10,,,,,,,,,2,1.435406497999793,119,001,2019_Sep_26_1712,MusicAffectPsychophysiology2019,3.0.5,29.984772563019227,
,,30MonoWAV/30MonoH1.wav,2,2,1,5,,,,,1,8,24,4,,,,,,,,,,,,,,,119,001,2019_Sep_26_1712,MusicAffectPsychophysiology2019,3.0.5,29.984772563019227,
To what extent did the music make you feel ,SCARED,30MonoWAV/30MonoF2.wav,1,2,2,2,,,,,1,9,25,1,0,0,0,11,,,2,3.7013072939989797,1,1.2022590240012505,1,1.502277193001646,5,2.0737788010010263,119,001,2019_Sep_26_1712,MusicAffectPsychophysiology2019,3.0.5,29.984772563019227,
To what extent did the music make you feel ,ASHAMED,30MonoWAV/30MonoF2.wav,1,2,2,2,,,,,1,9,25,1,0,1,1,4,,,,,,,,,1,1.451579814998695,119,001,2019_Sep_26_1712,MusicAffectPsychophysiology2019,3.0.5,29.984772563019227,
To what extent did the music make you feel ,TENDER,30MonoWAV/30MonoF2.wav,1,2,2,2,,,,,1,9,25,1,0,2,2,10,,,,,,,,,2,4.068776660998992,119,001,2019_Sep_26_1712,MusicAffectPsychophysiology2019,3.0.5,29.984772563019227,
To what extent did the music make you feel ,ANXIOUS ,30MonoWAV/30MonoF2.wav,1,2,2,2,,,,,1,9,25,1,0,3,3,1,,,,,,,,,4,2.952339217001281,119,001,2019_Sep_26_1712,MusicAffectPsychophysiology2019,3.0.5,29.984772563019227,
To what extent did the music make you feel ,ALERT,30MonoWAV/30MonoF2.wav,1,2,2,2,,,,,1,9,25,1,0,4,4,8,,,,,,,,,4,1.335287457000959,119,001,2019_Sep_26_1712,MusicAffectPsychophysiology2019,3.0.5,29.984772563019227,
To what extent did the music make you feel ,ANGRY,30MonoWAV/30MonoF2.wav,1,2,2,2,,,,,1,9,25,1,0,5,5,2,,,,,,,,,3,1.785028381000302,119,001,2019_Sep_26_1712,MusicAffectPsychophysiology2019,3.0.5,29.984772563019227,
To what extent did the music make you feel ,FRUSTRATED,30MonoWAV/30MonoF2.wav,1,2,2,2,,,,,1,9,25,1,0,6,6,3,,,,,,,,,3,1.4859404559974791,119,001,2019_Sep_26_1712,MusicAffectPsychophysiology2019,3.0.5,29.984772563019227,
To what extent did the music make you feel ,HAPPY,30MonoWAV/30MonoF2.wav,1,2,2,2,,,,,1,9,25,1,0,7,7,6,,,,,,,,,1,1.135075031001179,119,001,2019_Sep_26_1712,MusicAffectPsychophysiology2019,3.0.5,29.984772563019227,
To what extent did the music make you feel ,SAD,30MonoWAV/30MonoF2.wav,1,2,2,2,,,,,1,9,25,1,0,8,8,0,,,,,,,,,3,3.885415690001537,119,001,2019_Sep_26_1712,MusicAffectPsychophysiology2019,3.0.5,29.984772563019227,
To what extent did the music make you feel ,GUILTY,30MonoWAV/30MonoF2.wav,1,2,2,2,,,,,1,9,25,1,0,9,9,5,,,,,,,,,1,1.3007628879968252,119,001,2019_Sep_26_1712,MusicAffectPsychophysiology2019,3.0.5,29.984772563019227,
To what extent did the music make you feel ,EXCITED,30MonoWAV/30MonoF2.wav,1,2,2,2,,,,,1,9,25,1,0,10,10,7,,,,,,,,,1,1.5681851129993447,119,001,2019_Sep_26_1712,MusicAffectPsychophysiology2019,3.0.5,29.984772563019227,
To what extent did the music make you feel ,ACTIVE,30MonoWAV/30MonoF2.wav,1,2,2,2,,,,,1,9,25,1,0,11,11,9,,,,,,,,,1,1.0188866680000501,119,001,2019_Sep_26_1712,MusicAffectPsychophysiology2019,3.0.5,29.984772563019227,
