Instruction,Word,song,valence,arousal,affectcat,songmark,pracwords.thisRepN,pracwords.thisTrialN,pracwords.thisN,pracwords.thisIndex,songtrials.thisRepN,songtrials.thisTrialN,songtrials.thisN,songtrials.thisIndex,words.thisRepN,words.thisTrialN,words.thisN,words.thisIndex,begin.keys,begin.rt,arousalkey.keys,arousalkey.rt,valencekey.keys,valencekey.rt,likekey.keys,likekey.rt,WordResponse.keys,WordResponse.rt,participant,session,date,expName,psychopyVersion,frameRate,
,,,,,,,,,,,,,,,,,,,space,6.989851050020661,,,,,,,,,120,001,2019_Oct_23_1524,MusicAffectPsychophysiology2019,3.0.5,59.60538586640935,
,,,,,,,,,,,,,,,,,,,,,1,8.751719503954519,,,,,,,120,001,2019_Oct_23_1524,MusicAffectPsychophysiology2019,3.0.5,59.60538586640935,
,,,,,,,,,,,,,,,,,,,,,,,3,7.418672210013028,,,,,120,001,2019_Oct_23_1524,MusicAffectPsychophysiology2019,3.0.5,59.60538586640935,
,,,,,,,,,,,,,,,,,,,,,,,,,2,5.4510883879847825,,,120,001,2019_Oct_23_1524,MusicAffectPsychophysiology2019,3.0.5,59.60538586640935,
To what extent did the music make you feel ,ANXIOUS ,,,,,,0,0,0,1,,,,,,,,,,,,,,,,,1,3.500082151964307,120,001,2019_Oct_23_1524,MusicAffectPsychophysiology2019,3.0.5,59.60538586640935,
To what extent did the music make you feel ,EXCITED,,,,,,0,1,1,7,,,,,,,,,,,,,,,,,1,2.368335567007307,120,001,2019_Oct_23_1524,MusicAffectPsychophysiology2019,3.0.5,59.60538586640935,
To what extent did the music make you feel ,ALERT,,,,,,0,2,2,8,,,,,,,,,,,,,,,,,1,3.253926986013539,120,001,2019_Oct_23_1524,MusicAffectPsychophysiology2019,3.0.5,59.60538586640935,
To what extent did the music make you feel ,ANGRY,,,,,,0,3,3,2,,,,,,,,,,,,,,,,,1,1.1776812259922735,120,001,2019_Oct_23_1524,MusicAffectPsychophysiology2019,3.0.5,59.60538586640935,
To what extent did the music make you feel ,SAD,,,,,,0,4,4,0,,,,,,,,,,,,,,,,,1,4.75111230800394,120,001,2019_Oct_23_1524,MusicAffectPsychophysiology2019,3.0.5,59.60538586640935,
To what extent did the music make you feel ,SCARED,,,,,,0,5,5,11,,,,,,,,,,,,,,,,,1,1.2850574920303188,120,001,2019_Oct_23_1524,MusicAffectPsychophysiology2019,3.0.5,59.60538586640935,
To what extent did the music make you feel ,FRUSTRATED,,,,,,0,6,6,3,,,,,,,,,,,,,,,,,1,0.8750529640237801,120,001,2019_Oct_23_1524,MusicAffectPsychophysiology2019,3.0.5,59.60538586640935,
To what extent did the music make you feel ,TENDER,,,,,,0,7,7,10,,,,,,,,,,,,,,,,,3,9.26775322604226,120,001,2019_Oct_23_1524,MusicAffectPsychophysiology2019,3.0.5,59.60538586640935,
To what extent did the music make you feel ,GUILTY,,,,,,0,8,8,5,,,,,,,,,,,,,,,,,1,1.3364721479592845,120,001,2019_Oct_23_1524,MusicAffectPsychophysiology2019,3.0.5,59.60538586640935,
To what extent did the music make you feel ,ASHAMED,,,,,,0,9,9,4,,,,,,,,,,,,,,,,,1,4.1521878450294025,120,001,2019_Oct_23_1524,MusicAffectPsychophysiology2019,3.0.5,59.60538586640935,
To what extent did the music make you feel ,ACTIVE,,,,,,0,10,10,9,,,,,,,,,,,,,,,,,1,0.8645464240107685,120,001,2019_Oct_23_1524,MusicAffectPsychophysiology2019,3.0.5,59.60538586640935,
To what extent did the music make you feel ,HAPPY,,,,,,0,11,11,6,,,,,,,,,,,,,,,,,1,4.357857146998867,120,001,2019_Oct_23_1524,MusicAffectPsychophysiology2019,3.0.5,59.60538586640935,
To what extent did the music make you feel ,ACTIVE,30MonoWAV/30MonoF2.wav,1,2,2,2,,,,,0,0,0,1,0,0,0,9,,,2,5.818228176969569,1,5.051669643027708,1,3.65212678903481,1,5.9183596150251105,120,001,2019_Oct_23_1524,MusicAffectPsychophysiology2019,3.0.5,59.60538586640935,
To what extent did the music make you feel ,TENDER,30MonoWAV/30MonoF2.wav,1,2,2,2,,,,,0,0,0,1,0,1,1,10,,,,,,,,,1,3.3687039599753916,120,001,2019_Oct_23_1524,MusicAffectPsychophysiology2019,3.0.5,59.60538586640935,
To what extent did the music make you feel ,ALERT,30MonoWAV/30MonoF2.wav,1,2,2,2,,,,,0,0,0,1,0,2,2,8,,,,,,,,,3,2.4030547970323823,120,001,2019_Oct_23_1524,MusicAffectPsychophysiology2019,3.0.5,59.60538586640935,
To what extent did the music make you feel ,ANXIOUS ,30MonoWAV/30MonoF2.wav,1,2,2,2,,,,,0,0,0,1,0,3,3,1,,,,,,,,,3,2.6360006739851087,120,001,2019_Oct_23_1524,MusicAffectPsychophysiology2019,3.0.5,59.60538586640935,
To what extent did the music make you feel ,EXCITED,30MonoWAV/30MonoF2.wav,1,2,2,2,,,,,0,0,0,1,0,4,4,7,,,,,,,,,1,4.769121797988191,120,001,2019_Oct_23_1524,MusicAffectPsychophysiology2019,3.0.5,59.60538586640935,
To what extent did the music make you feel ,ASHAMED,30MonoWAV/30MonoF2.wav,1,2,2,2,,,,,0,0,0,1,0,5,5,4,,,,,,,,,1,1.0174783619586378,120,001,2019_Oct_23_1524,MusicAffectPsychophysiology2019,3.0.5,59.60538586640935,
To what extent did the music make you feel ,SAD,30MonoWAV/30MonoF2.wav,1,2,2,2,,,,,0,0,0,1,0,6,6,0,,,,,,,,,1,1.352442505012732,120,001,2019_Oct_23_1524,MusicAffectPsychophysiology2019,3.0.5,59.60538586640935,
To what extent did the music make you feel ,HAPPY,30MonoWAV/30MonoF2.wav,1,2,2,2,,,,,0,0,0,1,0,7,7,6,,,,,,,,,1,0.9182448429637589,120,001,2019_Oct_23_1524,MusicAffectPsychophysiology2019,3.0.5,59.60538586640935,
To what extent did the music make you feel ,GUILTY,30MonoWAV/30MonoF2.wav,1,2,2,2,,,,,0,0,0,1,0,8,8,5,,,,,,,,,1,1.319345862022601,120,001,2019_Oct_23_1524,MusicAffectPsychophysiology2019,3.0.5,59.60538586640935,
To what extent did the music make you feel ,FRUSTRATED,30MonoWAV/30MonoF2.wav,1,2,2,2,,,,,0,0,0,1,0,9,9,3,,,,,,,,,1,1.0193452539970167,120,001,2019_Oct_23_1524,MusicAffectPsychophysiology2019,3.0.5,59.60538586640935,
To what extent did the music make you feel ,SCARED,30MonoWAV/30MonoF2.wav,1,2,2,2,,,,,0,0,0,1,0,10,10,11,,,,,,,,,3,4.001749074028339,120,001,2019_Oct_23_1524,MusicAffectPsychophysiology2019,3.0.5,59.60538586640935,
To what extent did the music make you feel ,ANGRY,30MonoWAV/30MonoF2.wav,1,2,2,2,,,,,0,0,0,1,0,11,11,2,,,,,,,,,1,1.502499155991245,120,001,2019_Oct_23_1524,MusicAffectPsychophysiology2019,3.0.5,59.60538586640935,
,,30MonoWAV/30MonoF2.wav,1,2,2,2,,,,,0,0,0,1,,,,,,,,,,,,,,,120,001,2019_Oct_23_1524,MusicAffectPsychophysiology2019,3.0.5,59.60538586640935,
To what extent did the music make you feel ,HAPPY,30MonoWAV/30MonoT2.wav,2,1,4,14,,,,,0,1,1,13,0,0,0,6,,,2,10.38442696997663,5,3.2694070240249857,5,1.3685626169899479,4,11.24078880698653,120,001,2019_Oct_23_1524,MusicAffectPsychophysiology2019,3.0.5,59.60538586640935,
To what extent did the music make you feel ,ANXIOUS ,30MonoWAV/30MonoT2.wav,2,1,4,14,,,,,0,1,1,13,0,1,1,1,,,,,,,,,1,2.119089587009512,120,001,2019_Oct_23_1524,MusicAffectPsychophysiology2019,3.0.5,59.60538586640935,
To what extent did the music make you feel ,GUILTY,30MonoWAV/30MonoT2.wav,2,1,4,14,,,,,0,1,1,13,0,2,2,5,,,,,,,,,1,0.7171815450419672,120,001,2019_Oct_23_1524,MusicAffectPsychophysiology2019,3.0.5,59.60538586640935,
To what extent did the music make you feel ,ANGRY,30MonoWAV/30MonoT2.wav,2,1,4,14,,,,,0,1,1,13,0,3,3,2,,,,,,,,,1,0.618761055986397,120,001,2019_Oct_23_1524,MusicAffectPsychophysiology2019,3.0.5,59.60538586640935,
To what extent did the music make you feel ,TENDER,30MonoWAV/30MonoT2.wav,2,1,4,14,,,,,0,1,1,13,0,4,4,10,,,,,,,,,5,3.7188419910380617,120,001,2019_Oct_23_1524,MusicAffectPsychophysiology2019,3.0.5,59.60538586640935,
To what extent did the music make you feel ,ASHAMED,30MonoWAV/30MonoT2.wav,2,1,4,14,,,,,0,1,1,13,0,5,5,4,,,,,,,,,1,1.0848976269480772,120,001,2019_Oct_23_1524,MusicAffectPsychophysiology2019,3.0.5,59.60538586640935,
To what extent did the music make you feel ,SCARED,30MonoWAV/30MonoT2.wav,2,1,4,14,,,,,0,1,1,13,0,6,6,11,,,,,,,,,1,1.6683418399770744,120,001,2019_Oct_23_1524,MusicAffectPsychophysiology2019,3.0.5,59.60538586640935,
To what extent did the music make you feel ,SAD,30MonoWAV/30MonoT2.wav,2,1,4,14,,,,,0,1,1,13,0,7,7,0,,,,,,,,,1,6.666604293975979,120,001,2019_Oct_23_1524,MusicAffectPsychophysiology2019,3.0.5,59.60538586640935,
To what extent did the music make you feel ,FRUSTRATED,30MonoWAV/30MonoT2.wav,2,1,4,14,,,,,0,1,1,13,0,8,8,3,,,,,,,,,1,1.6019630530499853,120,001,2019_Oct_23_1524,MusicAffectPsychophysiology2019,3.0.5,59.60538586640935,
To what extent did the music make you feel ,ACTIVE,30MonoWAV/30MonoT2.wav,2,1,4,14,,,,,0,1,1,13,0,9,9,9,,,,,,,,,1,3.5353497639880516,120,001,2019_Oct_23_1524,MusicAffectPsychophysiology2019,3.0.5,59.60538586640935,
To what extent did the music make you feel ,EXCITED,30MonoWAV/30MonoT2.wav,2,1,4,14,,,,,0,1,1,13,0,10,10,7,,,,,,,,,1,7.801196016022004,120,001,2019_Oct_23_1524,MusicAffectPsychophysiology2019,3.0.5,59.60538586640935,
To what extent did the music make you feel ,ALERT,30MonoWAV/30MonoT2.wav,2,1,4,14,,,,,0,1,1,13,0,11,11,8,,,,,,,,,1,1.485606902046129,120,001,2019_Oct_23_1524,MusicAffectPsychophysiology2019,3.0.5,59.60538586640935,
,,30MonoWAV/30MonoT2.wav,2,1,4,14,,,,,0,1,1,13,,,,,,,,,,,,,,,120,001,2019_Oct_23_1524,MusicAffectPsychophysiology2019,3.0.5,59.60538586640935,
To what extent did the music make you feel ,SAD,30MonoWAV/30MonoT4.wav,2,1,4,16,,,,,0,2,2,15,0,0,0,0,,,2,5.200865035003517,5,6.70147749298485,4,1.5329276719712652,1,4.314372700988315,120,001,2019_Oct_23_1524,MusicAffectPsychophysiology2019,3.0.5,59.60538586640935,
To what extent did the music make you feel ,ALERT,30MonoWAV/30MonoT4.wav,2,1,4,16,,,,,0,2,2,15,0,1,1,8,,,,,,,,,1,0.8490517430473119,120,001,2019_Oct_23_1524,MusicAffectPsychophysiology2019,3.0.5,59.60538586640935,
To what extent did the music make you feel ,GUILTY,30MonoWAV/30MonoT4.wav,2,1,4,16,,,,,0,2,2,15,0,2,2,5,,,,,,,,,1,0.6863238739897497,120,001,2019_Oct_23_1524,MusicAffectPsychophysiology2019,3.0.5,59.60538586640935,
To what extent did the music make you feel ,SCARED,30MonoWAV/30MonoT4.wav,2,1,4,16,,,,,0,2,2,15,0,3,3,11,,,,,,,,,1,0.6206140020512976,120,001,2019_Oct_23_1524,MusicAffectPsychophysiology2019,3.0.5,59.60538586640935,
To what extent did the music make you feel ,ANGRY,30MonoWAV/30MonoT4.wav,2,1,4,16,,,,,0,2,2,15,0,4,4,2,,,,,,,,,1,1.4506738350028172,120,001,2019_Oct_23_1524,MusicAffectPsychophysiology2019,3.0.5,59.60538586640935,
To what extent did the music make you feel ,ANXIOUS ,30MonoWAV/30MonoT4.wav,2,1,4,16,,,,,0,2,2,15,0,5,5,1,,,,,,,,,1,1.453034646983724,120,001,2019_Oct_23_1524,MusicAffectPsychophysiology2019,3.0.5,59.60538586640935,
To what extent did the music make you feel ,ACTIVE,30MonoWAV/30MonoT4.wav,2,1,4,16,,,,,0,2,2,15,0,6,6,9,,,,,,,,,1,1.6522358150104992,120,001,2019_Oct_23_1524,MusicAffectPsychophysiology2019,3.0.5,59.60538586640935,
To what extent did the music make you feel ,EXCITED,30MonoWAV/30MonoT4.wav,2,1,4,16,,,,,0,2,2,15,0,7,7,7,,,,,,,,,1,1.2856436890433542,120,001,2019_Oct_23_1524,MusicAffectPsychophysiology2019,3.0.5,59.60538586640935,
To what extent did the music make you feel ,TENDER,30MonoWAV/30MonoT4.wav,2,1,4,16,,,,,0,2,2,15,0,8,8,10,,,,,,,,,5,4.235439709038474,120,001,2019_Oct_23_1524,MusicAffectPsychophysiology2019,3.0.5,59.60538586640935,
To what extent did the music make you feel ,ASHAMED,30MonoWAV/30MonoT4.wav,2,1,4,16,,,,,0,2,2,15,0,9,9,4,,,,,,,,,1,1.2364339730120264,120,001,2019_Oct_23_1524,MusicAffectPsychophysiology2019,3.0.5,59.60538586640935,
To what extent did the music make you feel ,HAPPY,30MonoWAV/30MonoT4.wav,2,1,4,16,,,,,0,2,2,15,0,10,10,6,,,,,,,,,4,10.71721291099675,120,001,2019_Oct_23_1524,MusicAffectPsychophysiology2019,3.0.5,59.60538586640935,
To what extent did the music make you feel ,FRUSTRATED,30MonoWAV/30MonoT4.wav,2,1,4,16,,,,,0,2,2,15,0,11,11,3,,,,,,,,,1,1.2687679619994015,120,001,2019_Oct_23_1524,MusicAffectPsychophysiology2019,3.0.5,59.60538586640935,
,,30MonoWAV/30MonoT4.wav,2,1,4,16,,,,,0,2,2,15,,,,,,,,,,,,,,,120,001,2019_Oct_23_1524,MusicAffectPsychophysiology2019,3.0.5,59.60538586640935,
To what extent did the music make you feel ,SCARED,30MonoWAV/30MonoF3.wav,1,2,2,3,,,,,0,3,3,2,0,0,0,11,,,1,8.401156453997828,1,4.599587399978191,1,3.8674388119834475,2,2.3035839659860358,120,001,2019_Oct_23_1524,MusicAffectPsychophysiology2019,3.0.5,59.60538586640935,
To what extent did the music make you feel ,SAD,30MonoWAV/30MonoF3.wav,1,2,2,3,,,,,0,3,3,2,0,1,1,0,,,,,,,,,1,1.3012460449826904,120,001,2019_Oct_23_1524,MusicAffectPsychophysiology2019,3.0.5,59.60538586640935,
To what extent did the music make you feel ,FRUSTRATED,30MonoWAV/30MonoF3.wav,1,2,2,3,,,,,0,3,3,2,0,2,2,3,,,,,,,,,1,2.6026077329879627,120,001,2019_Oct_23_1524,MusicAffectPsychophysiology2019,3.0.5,59.60538586640935,
To what extent did the music make you feel ,ACTIVE,30MonoWAV/30MonoF3.wav,1,2,2,3,,,,,0,3,3,2,0,3,3,9,,,,,,,,,1,5.119357573974412,120,001,2019_Oct_23_1524,MusicAffectPsychophysiology2019,3.0.5,59.60538586640935,
To what extent did the music make you feel ,ANGRY,30MonoWAV/30MonoF3.wav,1,2,2,3,,,,,0,3,3,2,0,4,4,2,,,,,,,,,1,1.25311429600697,120,001,2019_Oct_23_1524,MusicAffectPsychophysiology2019,3.0.5,59.60538586640935,
To what extent did the music make you feel ,HAPPY,30MonoWAV/30MonoF3.wav,1,2,2,3,,,,,0,3,3,2,0,5,5,6,,,,,,,,,1,2.1674107700237073,120,001,2019_Oct_23_1524,MusicAffectPsychophysiology2019,3.0.5,59.60538586640935,
To what extent did the music make you feel ,EXCITED,30MonoWAV/30MonoF3.wav,1,2,2,3,,,,,0,3,3,2,0,6,6,7,,,,,,,,,1,1.5166893290006556,120,001,2019_Oct_23_1524,MusicAffectPsychophysiology2019,3.0.5,59.60538586640935,
To what extent did the music make you feel ,TENDER,30MonoWAV/30MonoF3.wav,1,2,2,3,,,,,0,3,3,2,0,7,7,10,,,,,,,,,1,1.1861306589562446,120,001,2019_Oct_23_1524,MusicAffectPsychophysiology2019,3.0.5,59.60538586640935,
To what extent did the music make you feel ,ASHAMED,30MonoWAV/30MonoF3.wav,1,2,2,3,,,,,0,3,3,2,0,8,8,4,,,,,,,,,1,1.01598880905658,120,001,2019_Oct_23_1524,MusicAffectPsychophysiology2019,3.0.5,59.60538586640935,
To what extent did the music make you feel ,GUILTY,30MonoWAV/30MonoF3.wav,1,2,2,3,,,,,0,3,3,2,0,9,9,5,,,,,,,,,1,8.285854393034242,120,001,2019_Oct_23_1524,MusicAffectPsychophysiology2019,3.0.5,59.60538586640935,
To what extent did the music make you feel ,ALERT,30MonoWAV/30MonoF3.wav,1,2,2,3,,,,,0,3,3,2,0,10,10,8,,,,,,,,,3,4.5677931779646315,120,001,2019_Oct_23_1524,MusicAffectPsychophysiology2019,3.0.5,59.60538586640935,
To what extent did the music make you feel ,ANXIOUS ,30MonoWAV/30MonoF3.wav,1,2,2,3,,,,,0,3,3,2,0,11,11,1,,,,,,,,,3,1.6518779990146868,120,001,2019_Oct_23_1524,MusicAffectPsychophysiology2019,3.0.5,59.60538586640935,
,,30MonoWAV/30MonoF3.wav,1,2,2,3,,,,,0,3,3,2,,,,,,,,,,,,,,,120,001,2019_Oct_23_1524,MusicAffectPsychophysiology2019,3.0.5,59.60538586640935,
To what extent did the music make you feel ,ACTIVE,30MonoWAV/30MonoF1.wav,1,2,2,1,,,,,0,4,4,0,0,0,0,9,,,2,5.718885357026011,1,4.18596953805536,1,5.534411609987728,2,6.695666995947249,120,001,2019_Oct_23_1524,MusicAffectPsychophysiology2019,3.0.5,59.60538586640935,
To what extent did the music make you feel ,ASHAMED,30MonoWAV/30MonoF1.wav,1,2,2,1,,,,,0,4,4,0,0,1,1,4,,,,,,,,,1,0.9836805309751071,120,001,2019_Oct_23_1524,MusicAffectPsychophysiology2019,3.0.5,59.60538586640935,
To what extent did the music make you feel ,FRUSTRATED,30MonoWAV/30MonoF1.wav,1,2,2,1,,,,,0,4,4,0,0,2,2,3,,,,,,,,,1,0.803375226969365,120,001,2019_Oct_23_1524,MusicAffectPsychophysiology2019,3.0.5,59.60538586640935,
To what extent did the music make you feel ,TENDER,30MonoWAV/30MonoF1.wav,1,2,2,1,,,,,0,4,4,0,0,3,3,10,,,,,,,,,1,0.9706032710382715,120,001,2019_Oct_23_1524,MusicAffectPsychophysiology2019,3.0.5,59.60538586640935,
To what extent did the music make you feel ,ANGRY,30MonoWAV/30MonoF1.wav,1,2,2,1,,,,,0,4,4,0,0,4,4,2,,,,,,,,,1,1.1513434850494377,120,001,2019_Oct_23_1524,MusicAffectPsychophysiology2019,3.0.5,59.60538586640935,
To what extent did the music make you feel ,EXCITED,30MonoWAV/30MonoF1.wav,1,2,2,1,,,,,0,4,4,0,0,5,5,7,,,,,,,,,1,1.1527347029768862,120,001,2019_Oct_23_1524,MusicAffectPsychophysiology2019,3.0.5,59.60538586640935,
To what extent did the music make you feel ,SCARED,30MonoWAV/30MonoF1.wav,1,2,2,1,,,,,0,4,4,0,0,6,6,11,,,,,,,,,2,3.5522608190076426,120,001,2019_Oct_23_1524,MusicAffectPsychophysiology2019,3.0.5,59.60538586640935,
To what extent did the music make you feel ,HAPPY,30MonoWAV/30MonoF1.wav,1,2,2,1,,,,,0,4,4,0,0,7,7,6,,,,,,,,,1,3.3025212790234946,120,001,2019_Oct_23_1524,MusicAffectPsychophysiology2019,3.0.5,59.60538586640935,
To what extent did the music make you feel ,ALERT,30MonoWAV/30MonoF1.wav,1,2,2,1,,,,,0,4,4,0,0,8,8,8,,,,,,,,,3,2.735191480955109,120,001,2019_Oct_23_1524,MusicAffectPsychophysiology2019,3.0.5,59.60538586640935,
To what extent did the music make you feel ,GUILTY,30MonoWAV/30MonoF1.wav,1,2,2,1,,,,,0,4,4,0,0,9,9,5,,,,,,,,,1,1.0862581199617125,120,001,2019_Oct_23_1524,MusicAffectPsychophysiology2019,3.0.5,59.60538586640935,
To what extent did the music make you feel ,ANXIOUS ,30MonoWAV/30MonoF1.wav,1,2,2,1,,,,,0,4,4,0,0,10,10,1,,,,,,,,,3,4.251099223969504,120,001,2019_Oct_23_1524,MusicAffectPsychophysiology2019,3.0.5,59.60538586640935,
To what extent did the music make you feel ,SAD,30MonoWAV/30MonoF1.wav,1,2,2,1,,,,,0,4,4,0,0,11,11,0,,,,,,,,,1,1.0849966369569302,120,001,2019_Oct_23_1524,MusicAffectPsychophysiology2019,3.0.5,59.60538586640935,
,,30MonoWAV/30MonoF1.wav,1,2,2,1,,,,,0,4,4,0,,,,,,,,,,,,,,,120,001,2019_Oct_23_1524,MusicAffectPsychophysiology2019,3.0.5,59.60538586640935,
To what extent did the music make you feel ,EXCITED,30MonoWAV/30MonoS3.wav,1,1,3,11,,,,,0,5,5,10,0,0,0,7,,,2,5.368950269010384,3,16.749210281996056,4,3.7682670680223964,1,3.085655722010415,120,001,2019_Oct_23_1524,MusicAffectPsychophysiology2019,3.0.5,59.60538586640935,
To what extent did the music make you feel ,HAPPY,30MonoWAV/30MonoS3.wav,1,1,3,11,,,,,0,5,5,10,0,1,1,6,,,,,,,,,1,10.918182255001739,120,001,2019_Oct_23_1524,MusicAffectPsychophysiology2019,3.0.5,59.60538586640935,
To what extent did the music make you feel ,FRUSTRATED,30MonoWAV/30MonoS3.wav,1,1,3,11,,,,,0,5,5,10,0,2,2,3,,,,,,,,,1,2.5531290429644287,120,001,2019_Oct_23_1524,MusicAffectPsychophysiology2019,3.0.5,59.60538586640935,
To what extent did the music make you feel ,SCARED,30MonoWAV/30MonoS3.wav,1,1,3,11,,,,,0,5,5,10,0,3,3,11,,,,,,,,,3,11.715649495017715,120,001,2019_Oct_23_1524,MusicAffectPsychophysiology2019,3.0.5,59.60538586640935,
To what extent did the music make you feel ,ASHAMED,30MonoWAV/30MonoS3.wav,1,1,3,11,,,,,0,5,5,10,0,4,4,4,,,,,,,,,1,1.0020374589948915,120,001,2019_Oct_23_1524,MusicAffectPsychophysiology2019,3.0.5,59.60538586640935,
To what extent did the music make you feel ,TENDER,30MonoWAV/30MonoS3.wav,1,1,3,11,,,,,0,5,5,10,0,5,5,10,,,,,,,,,2,4.150429764005821,120,001,2019_Oct_23_1524,MusicAffectPsychophysiology2019,3.0.5,59.60538586640935,
To what extent did the music make you feel ,ANGRY,30MonoWAV/30MonoS3.wav,1,1,3,11,,,,,0,5,5,10,0,6,6,2,,,,,,,,,1,3.036502222006675,120,001,2019_Oct_23_1524,MusicAffectPsychophysiology2019,3.0.5,59.60538586640935,
To what extent did the music make you feel ,GUILTY,30MonoWAV/30MonoS3.wav,1,1,3,11,,,,,0,5,5,10,0,7,7,5,,,,,,,,,1,0.7206559120095335,120,001,2019_Oct_23_1524,MusicAffectPsychophysiology2019,3.0.5,59.60538586640935,
To what extent did the music make you feel ,ALERT,30MonoWAV/30MonoS3.wav,1,1,3,11,,,,,0,5,5,10,0,8,8,8,,,,,,,,,3,6.601654366008006,120,001,2019_Oct_23_1524,MusicAffectPsychophysiology2019,3.0.5,59.60538586640935,
To what extent did the music make you feel ,SAD,30MonoWAV/30MonoS3.wav,1,1,3,11,,,,,0,5,5,10,0,9,9,0,,,,,,,,,2,2.2527019749977626,120,001,2019_Oct_23_1524,MusicAffectPsychophysiology2019,3.0.5,59.60538586640935,
To what extent did the music make you feel ,ACTIVE,30MonoWAV/30MonoS3.wav,1,1,3,11,,,,,0,5,5,10,0,10,10,9,,,,,,,,,1,1.8517361379927024,120,001,2019_Oct_23_1524,MusicAffectPsychophysiology2019,3.0.5,59.60538586640935,
To what extent did the music make you feel ,ANXIOUS ,30MonoWAV/30MonoS3.wav,1,1,3,11,,,,,0,5,5,10,0,11,11,1,,,,,,,,,2,9.234203330008313,120,001,2019_Oct_23_1524,MusicAffectPsychophysiology2019,3.0.5,59.60538586640935,
,,30MonoWAV/30MonoS3.wav,1,1,3,11,,,,,0,5,5,10,,,,,,,,,,,,,,,120,001,2019_Oct_23_1524,MusicAffectPsychophysiology2019,3.0.5,59.60538586640935,
To what extent did the music make you feel ,EXCITED,30MonoWAV/30MonoS1.wav,1,1,3,9,,,,,0,6,6,8,0,0,0,7,,,2,8.235491704021115,2,4.985883008979727,5,1.5856485510012135,1,2.8911818799679168,120,001,2019_Oct_23_1524,MusicAffectPsychophysiology2019,3.0.5,59.60538586640935,
To what extent did the music make you feel ,SCARED,30MonoWAV/30MonoS1.wav,1,1,3,9,,,,,0,6,6,8,0,1,1,11,,,,,,,,,1,2.2693296979996376,120,001,2019_Oct_23_1524,MusicAffectPsychophysiology2019,3.0.5,59.60538586640935,
To what extent did the music make you feel ,ACTIVE,30MonoWAV/30MonoS1.wav,1,1,3,9,,,,,0,6,6,8,0,2,2,9,,,,,,,,,1,1.4357265279977582,120,001,2019_Oct_23_1524,MusicAffectPsychophysiology2019,3.0.5,59.60538586640935,
To what extent did the music make you feel ,ANGRY,30MonoWAV/30MonoS1.wav,1,1,3,9,,,,,0,6,6,8,0,3,3,2,,,,,,,,,1,0.734099390974734,120,001,2019_Oct_23_1524,MusicAffectPsychophysiology2019,3.0.5,59.60538586640935,
To what extent did the music make you feel ,TENDER,30MonoWAV/30MonoS1.wav,1,1,3,9,,,,,0,6,6,8,0,4,4,10,,,,,,,,,3,5.383588667027652,120,001,2019_Oct_23_1524,MusicAffectPsychophysiology2019,3.0.5,59.60538586640935,
To what extent did the music make you feel ,FRUSTRATED,30MonoWAV/30MonoS1.wav,1,1,3,9,,,,,0,6,6,8,0,5,5,3,,,,,,,,,1,0.9671911390032619,120,001,2019_Oct_23_1524,MusicAffectPsychophysiology2019,3.0.5,59.60538586640935,
To what extent did the music make you feel ,ASHAMED,30MonoWAV/30MonoS1.wav,1,1,3,9,,,,,0,6,6,8,0,6,6,4,,,,,,,,,1,0.9185893809772097,120,001,2019_Oct_23_1524,MusicAffectPsychophysiology2019,3.0.5,59.60538586640935,
To what extent did the music make you feel ,SAD,30MonoWAV/30MonoS1.wav,1,1,3,9,,,,,0,6,6,8,0,7,7,0,,,,,,,,,2,3.0833510700031184,120,001,2019_Oct_23_1524,MusicAffectPsychophysiology2019,3.0.5,59.60538586640935,
To what extent did the music make you feel ,ANXIOUS ,30MonoWAV/30MonoS1.wav,1,1,3,9,,,,,0,6,6,8,0,8,8,1,,,,,,,,,2,4.635281016991939,120,001,2019_Oct_23_1524,MusicAffectPsychophysiology2019,3.0.5,59.60538586640935,
To what extent did the music make you feel ,GUILTY,30MonoWAV/30MonoS1.wav,1,1,3,9,,,,,0,6,6,8,0,9,9,5,,,,,,,,,1,1.8021401360165328,120,001,2019_Oct_23_1524,MusicAffectPsychophysiology2019,3.0.5,59.60538586640935,
To what extent did the music make you feel ,HAPPY,30MonoWAV/30MonoS1.wav,1,1,3,9,,,,,0,6,6,8,0,10,10,6,,,,,,,,,1,10.06878017494455,120,001,2019_Oct_23_1524,MusicAffectPsychophysiology2019,3.0.5,59.60538586640935,
To what extent did the music make you feel ,ALERT,30MonoWAV/30MonoS1.wav,1,1,3,9,,,,,0,6,6,8,0,11,11,8,,,,,,,,,2,6.78550457401434,120,001,2019_Oct_23_1524,MusicAffectPsychophysiology2019,3.0.5,59.60538586640935,
,,30MonoWAV/30MonoS1.wav,1,1,3,9,,,,,0,6,6,8,,,,,,,,,,,,,,,120,001,2019_Oct_23_1524,MusicAffectPsychophysiology2019,3.0.5,59.60538586640935,
To what extent did the music make you feel ,ALERT,30MonoWAV/30MonoT3.wav,2,1,4,15,,,,,0,7,7,14,0,0,0,8,,,1,10.735221492999699,5,7.435855927004013,4,4.785839824995492,1,2.0530384719604626,120,001,2019_Oct_23_1524,MusicAffectPsychophysiology2019,3.0.5,59.60538586640935,
To what extent did the music make you feel ,ACTIVE,30MonoWAV/30MonoT3.wav,2,1,4,15,,,,,0,7,7,14,0,1,1,9,,,,,,,,,1,0.6027108579874039,120,001,2019_Oct_23_1524,MusicAffectPsychophysiology2019,3.0.5,59.60538586640935,
To what extent did the music make you feel ,EXCITED,30MonoWAV/30MonoT3.wav,2,1,4,15,,,,,0,7,7,14,0,2,2,7,,,,,,,,,1,1.036047566041816,120,001,2019_Oct_23_1524,MusicAffectPsychophysiology2019,3.0.5,59.60538586640935,
To what extent did the music make you feel ,GUILTY,30MonoWAV/30MonoT3.wav,2,1,4,15,,,,,0,7,7,14,0,3,3,5,,,,,,,,,1,0.6192773549701087,120,001,2019_Oct_23_1524,MusicAffectPsychophysiology2019,3.0.5,59.60538586640935,
To what extent did the music make you feel ,FRUSTRATED,30MonoWAV/30MonoT3.wav,2,1,4,15,,,,,0,7,7,14,0,4,4,3,,,,,,,,,1,0.5127271039527841,120,001,2019_Oct_23_1524,MusicAffectPsychophysiology2019,3.0.5,59.60538586640935,
To what extent did the music make you feel ,SAD,30MonoWAV/30MonoT3.wav,2,1,4,15,,,,,0,7,7,14,0,5,5,0,,,,,,,,,1,2.0517055209493265,120,001,2019_Oct_23_1524,MusicAffectPsychophysiology2019,3.0.5,59.60538586640935,
To what extent did the music make you feel ,ANXIOUS ,30MonoWAV/30MonoT3.wav,2,1,4,15,,,,,0,7,7,14,0,6,6,1,,,,,,,,,1,0.7027772379806265,120,001,2019_Oct_23_1524,MusicAffectPsychophysiology2019,3.0.5,59.60538586640935,
To what extent did the music make you feel ,TENDER,30MonoWAV/30MonoT3.wav,2,1,4,15,,,,,0,7,7,14,0,7,7,10,,,,,,,,,5,3.9193840739899315,120,001,2019_Oct_23_1524,MusicAffectPsychophysiology2019,3.0.5,59.60538586640935,
To what extent did the music make you feel ,HAPPY,30MonoWAV/30MonoT3.wav,2,1,4,15,,,,,0,7,7,14,0,8,8,6,,,,,,,,,3,1.969648400961887,120,001,2019_Oct_23_1524,MusicAffectPsychophysiology2019,3.0.5,59.60538586640935,
To what extent did the music make you feel ,ANGRY,30MonoWAV/30MonoT3.wav,2,1,4,15,,,,,0,7,7,14,0,9,9,2,,,,,,,,,1,1.5364364759880118,120,001,2019_Oct_23_1524,MusicAffectPsychophysiology2019,3.0.5,59.60538586640935,
To what extent did the music make you feel ,ASHAMED,30MonoWAV/30MonoT3.wav,2,1,4,15,,,,,0,7,7,14,0,10,10,4,,,,,,,,,1,0.8016356109874323,120,001,2019_Oct_23_1524,MusicAffectPsychophysiology2019,3.0.5,59.60538586640935,
To what extent did the music make you feel ,SCARED,30MonoWAV/30MonoT3.wav,2,1,4,15,,,,,0,7,7,14,0,11,11,11,,,,,,,,,1,0.9361528150038794,120,001,2019_Oct_23_1524,MusicAffectPsychophysiology2019,3.0.5,59.60538586640935,
,,30MonoWAV/30MonoT3.wav,2,1,4,15,,,,,0,7,7,14,,,,,,,,,,,,,,,120,001,2019_Oct_23_1524,MusicAffectPsychophysiology2019,3.0.5,59.60538586640935,
To what extent did the music make you feel ,ASHAMED,30MonoWAV/30MonoS2.wav,1,1,3,10,,,,,0,8,8,9,0,0,0,4,,,1,4.386611110006925,3,5.985076369019225,4,4.168098524969537,1,1.0716148299979977,120,001,2019_Oct_23_1524,MusicAffectPsychophysiology2019,3.0.5,59.60538586640935,
To what extent did the music make you feel ,TENDER,30MonoWAV/30MonoS2.wav,1,1,3,10,,,,,0,8,8,9,0,1,1,10,,,,,,,,,2,5.902800806972664,120,001,2019_Oct_23_1524,MusicAffectPsychophysiology2019,3.0.5,59.60538586640935,
To what extent did the music make you feel ,ANXIOUS ,30MonoWAV/30MonoS2.wav,1,1,3,10,,,,,0,8,8,9,0,2,2,1,,,,,,,,,1,1.3181177899823524,120,001,2019_Oct_23_1524,MusicAffectPsychophysiology2019,3.0.5,59.60538586640935,
To what extent did the music make you feel ,SAD,30MonoWAV/30MonoS2.wav,1,1,3,10,,,,,0,8,8,9,0,3,3,0,,,,,,,,,4,7.885781024000607,120,001,2019_Oct_23_1524,MusicAffectPsychophysiology2019,3.0.5,59.60538586640935,
To what extent did the music make you feel ,ACTIVE,30MonoWAV/30MonoS2.wav,1,1,3,10,,,,,0,8,8,9,0,4,4,9,,,,,,,,,1,1.0690850560204126,120,001,2019_Oct_23_1524,MusicAffectPsychophysiology2019,3.0.5,59.60538586640935,
To what extent did the music make you feel ,ANGRY,30MonoWAV/30MonoS2.wav,1,1,3,10,,,,,0,8,8,9,0,5,5,2,,,,,,,,,1,0.46838168997783214,120,001,2019_Oct_23_1524,MusicAffectPsychophysiology2019,3.0.5,59.60538586640935,
To what extent did the music make you feel ,ALERT,30MonoWAV/30MonoS2.wav,1,1,3,10,,,,,0,8,8,9,0,6,6,8,,,,,,,,,1,1.1857194740441628,120,001,2019_Oct_23_1524,MusicAffectPsychophysiology2019,3.0.5,59.60538586640935,
To what extent did the music make you feel ,HAPPY,30MonoWAV/30MonoS2.wav,1,1,3,10,,,,,0,8,8,9,0,7,7,6,,,,,,,,,1,5.034476750995964,120,001,2019_Oct_23_1524,MusicAffectPsychophysiology2019,3.0.5,59.60538586640935,
To what extent did the music make you feel ,SCARED,30MonoWAV/30MonoS2.wav,1,1,3,10,,,,,0,8,8,9,0,8,8,11,,,,,,,,,1,1.4363981490023434,120,001,2019_Oct_23_1524,MusicAffectPsychophysiology2019,3.0.5,59.60538586640935,
To what extent did the music make you feel ,GUILTY,30MonoWAV/30MonoS2.wav,1,1,3,10,,,,,0,8,8,9,0,9,9,5,,,,,,,,,1,0.5029312639962882,120,001,2019_Oct_23_1524,MusicAffectPsychophysiology2019,3.0.5,59.60538586640935,
To what extent did the music make you feel ,FRUSTRATED,30MonoWAV/30MonoS2.wav,1,1,3,10,,,,,0,8,8,9,0,10,10,3,,,,,,,,,1,0.6528680279734544,120,001,2019_Oct_23_1524,MusicAffectPsychophysiology2019,3.0.5,59.60538586640935,
To what extent did the music make you feel ,EXCITED,30MonoWAV/30MonoS2.wav,1,1,3,10,,,,,0,8,8,9,0,11,11,7,,,,,,,,,1,1.403426927048713,120,001,2019_Oct_23_1524,MusicAffectPsychophysiology2019,3.0.5,59.60538586640935,
,,30MonoWAV/30MonoS2.wav,1,1,3,10,,,,,0,8,8,9,,,,,,,,,,,,,,,120,001,2019_Oct_23_1524,MusicAffectPsychophysiology2019,3.0.5,59.60538586640935,
To what extent did the music make you feel ,HAPPY,30MonoWAV/30MonoS4.wav,1,1,3,12,,,,,0,9,9,11,0,0,0,6,,,1,4.202156396000646,3,3.4190488209715113,5,3.385959780018311,1,7.763499644002877,120,001,2019_Oct_23_1524,MusicAffectPsychophysiology2019,3.0.5,59.60538586640935,
To what extent did the music make you feel ,ACTIVE,30MonoWAV/30MonoS4.wav,1,1,3,12,,,,,0,9,9,11,0,1,1,9,,,,,,,,,1,0.5365904369973578,120,001,2019_Oct_23_1524,MusicAffectPsychophysiology2019,3.0.5,59.60538586640935,
To what extent did the music make you feel ,FRUSTRATED,30MonoWAV/30MonoS4.wav,1,1,3,12,,,,,0,9,9,11,0,2,2,3,,,,,,,,,1,0.6194536199909635,120,001,2019_Oct_23_1524,MusicAffectPsychophysiology2019,3.0.5,59.60538586640935,
To what extent did the music make you feel ,SCARED,30MonoWAV/30MonoS4.wav,1,1,3,12,,,,,0,9,9,11,0,3,3,11,,,,,,,,,1,0.8264528560102917,120,001,2019_Oct_23_1524,MusicAffectPsychophysiology2019,3.0.5,59.60538586640935,
To what extent did the music make you feel ,ALERT,30MonoWAV/30MonoS4.wav,1,1,3,12,,,,,0,9,9,11,0,4,4,8,,,,,,,,,1,0.5951058109640144,120,001,2019_Oct_23_1524,MusicAffectPsychophysiology2019,3.0.5,59.60538586640935,
To what extent did the music make you feel ,ANXIOUS ,30MonoWAV/30MonoS4.wav,1,1,3,12,,,,,0,9,9,11,0,5,5,1,,,,,,,,,1,4.948703266971279,120,001,2019_Oct_23_1524,MusicAffectPsychophysiology2019,3.0.5,59.60538586640935,
To what extent did the music make you feel ,TENDER,30MonoWAV/30MonoS4.wav,1,1,3,12,,,,,0,9,9,11,0,6,6,10,,,,,,,,,3,4.668842078011949,120,001,2019_Oct_23_1524,MusicAffectPsychophysiology2019,3.0.5,59.60538586640935,
To what extent did the music make you feel ,EXCITED,30MonoWAV/30MonoS4.wav,1,1,3,12,,,,,0,9,9,11,0,7,7,7,,,,,,,,,1,0.9520290460204706,120,001,2019_Oct_23_1524,MusicAffectPsychophysiology2019,3.0.5,59.60538586640935,
To what extent did the music make you feel ,ANGRY,30MonoWAV/30MonoS4.wav,1,1,3,12,,,,,0,9,9,11,0,8,8,2,,,,,,,,,1,0.4860084449755959,120,001,2019_Oct_23_1524,MusicAffectPsychophysiology2019,3.0.5,59.60538586640935,
To what extent did the music make you feel ,ASHAMED,30MonoWAV/30MonoS4.wav,1,1,3,12,,,,,0,9,9,11,0,9,9,4,,,,,,,,,1,0.619736846012529,120,001,2019_Oct_23_1524,MusicAffectPsychophysiology2019,3.0.5,59.60538586640935,
To what extent did the music make you feel ,GUILTY,30MonoWAV/30MonoS4.wav,1,1,3,12,,,,,0,9,9,11,0,10,10,5,,,,,,,,,1,0.5193583910004236,120,001,2019_Oct_23_1524,MusicAffectPsychophysiology2019,3.0.5,59.60538586640935,
To what extent did the music make you feel ,SAD,30MonoWAV/30MonoS4.wav,1,1,3,12,,,,,0,9,9,11,0,11,11,0,,,,,,,,,3,3.1859182579792105,120,001,2019_Oct_23_1524,MusicAffectPsychophysiology2019,3.0.5,59.60538586640935,
,,30MonoWAV/30MonoS4.wav,1,1,3,12,,,,,0,9,9,11,,,,,,,,,,,,,,,120,001,2019_Oct_23_1524,MusicAffectPsychophysiology2019,3.0.5,59.60538586640935,
To what extent did the music make you feel ,HAPPY,30MonoWAV/30MonoH2.wav,2,2,1,6,,,,,0,10,10,5,0,0,0,6,,,3,2.4682475599693134,4,4.6525121459853835,3,8.144283707020804,3,4.237649747985415,120,001,2019_Oct_23_1524,MusicAffectPsychophysiology2019,3.0.5,59.60538586640935,
To what extent did the music make you feel ,ANGRY,30MonoWAV/30MonoH2.wav,2,2,1,6,,,,,0,10,10,5,0,1,1,2,,,,,,,,,1,0.9843540449510328,120,001,2019_Oct_23_1524,MusicAffectPsychophysiology2019,3.0.5,59.60538586640935,
To what extent did the music make you feel ,ANXIOUS ,30MonoWAV/30MonoH2.wav,2,2,1,6,,,,,0,10,10,5,0,2,2,1,,,,,,,,,1,0.7344853690010495,120,001,2019_Oct_23_1524,MusicAffectPsychophysiology2019,3.0.5,59.60538586640935,
To what extent did the music make you feel ,TENDER,30MonoWAV/30MonoH2.wav,2,2,1,6,,,,,0,10,10,5,0,3,3,10,,,,,,,,,2,2.169886912975926,120,001,2019_Oct_23_1524,MusicAffectPsychophysiology2019,3.0.5,59.60538586640935,
To what extent did the music make you feel ,FRUSTRATED,30MonoWAV/30MonoH2.wav,2,2,1,6,,,,,0,10,10,5,0,4,4,3,,,,,,,,,1,0.7685399259789847,120,001,2019_Oct_23_1524,MusicAffectPsychophysiology2019,3.0.5,59.60538586640935,
To what extent did the music make you feel ,SAD,30MonoWAV/30MonoH2.wav,2,2,1,6,,,,,0,10,10,5,0,5,5,0,,,,,,,,,1,1.3025731400121003,120,001,2019_Oct_23_1524,MusicAffectPsychophysiology2019,3.0.5,59.60538586640935,
To what extent did the music make you feel ,ASHAMED,30MonoWAV/30MonoH2.wav,2,2,1,6,,,,,0,10,10,5,0,6,6,4,,,,,,,,,1,0.7687319210381247,120,001,2019_Oct_23_1524,MusicAffectPsychophysiology2019,3.0.5,59.60538586640935,
To what extent did the music make you feel ,ALERT,30MonoWAV/30MonoH2.wav,2,2,1,6,,,,,0,10,10,5,0,7,7,8,,,,,,,,,3,5.283813932968769,120,001,2019_Oct_23_1524,MusicAffectPsychophysiology2019,3.0.5,59.60538586640935,
To what extent did the music make you feel ,GUILTY,30MonoWAV/30MonoH2.wav,2,2,1,6,,,,,0,10,10,5,0,8,8,5,,,,,,,,,1,0.8347795159788802,120,001,2019_Oct_23_1524,MusicAffectPsychophysiology2019,3.0.5,59.60538586640935,
To what extent did the music make you feel ,EXCITED,30MonoWAV/30MonoH2.wav,2,2,1,6,,,,,0,10,10,5,0,9,9,7,,,,,,,,,2,1.4695570929907262,120,001,2019_Oct_23_1524,MusicAffectPsychophysiology2019,3.0.5,59.60538586640935,
To what extent did the music make you feel ,SCARED,30MonoWAV/30MonoH2.wav,2,2,1,6,,,,,0,10,10,5,0,10,10,11,,,,,,,,,1,0.9520027540274896,120,001,2019_Oct_23_1524,MusicAffectPsychophysiology2019,3.0.5,59.60538586640935,
To what extent did the music make you feel ,ACTIVE,30MonoWAV/30MonoH2.wav,2,2,1,6,,,,,0,10,10,5,0,11,11,9,,,,,,,,,1,3.5691426640260033,120,001,2019_Oct_23_1524,MusicAffectPsychophysiology2019,3.0.5,59.60538586640935,
,,30MonoWAV/30MonoH2.wav,2,2,1,6,,,,,0,10,10,5,,,,,,,,,,,,,,,120,001,2019_Oct_23_1524,MusicAffectPsychophysiology2019,3.0.5,59.60538586640935,
To what extent did the music make you feel ,ANXIOUS ,30MonoWAV/30MonoH4.wav,2,2,1,8,,,,,0,11,11,7,0,0,0,1,,,3,3.1830663600121625,3,3.352175391977653,1,5.233288812043611,1,2.1776487980387174,120,001,2019_Oct_23_1524,MusicAffectPsychophysiology2019,3.0.5,59.60538586640935,
To what extent did the music make you feel ,SCARED,30MonoWAV/30MonoH4.wav,2,2,1,8,,,,,0,11,11,7,0,1,1,11,,,,,,,,,1,0.5669030830031261,120,001,2019_Oct_23_1524,MusicAffectPsychophysiology2019,3.0.5,59.60538586640935,
To what extent did the music make you feel ,HAPPY,30MonoWAV/30MonoH4.wav,2,2,1,8,,,,,0,11,11,7,0,2,2,6,,,,,,,,,2,4.152108920039609,120,001,2019_Oct_23_1524,MusicAffectPsychophysiology2019,3.0.5,59.60538586640935,
To what extent did the music make you feel ,ASHAMED,30MonoWAV/30MonoH4.wav,2,2,1,8,,,,,0,11,11,7,0,3,3,4,,,,,,,,,1,1.1190237900009379,120,001,2019_Oct_23_1524,MusicAffectPsychophysiology2019,3.0.5,59.60538586640935,
To what extent did the music make you feel ,ALERT,30MonoWAV/30MonoH4.wav,2,2,1,8,,,,,0,11,11,7,0,4,4,8,,,,,,,,,2,1.5429594810120761,120,001,2019_Oct_23_1524,MusicAffectPsychophysiology2019,3.0.5,59.60538586640935,
To what extent did the music make you feel ,EXCITED,30MonoWAV/30MonoH4.wav,2,2,1,8,,,,,0,11,11,7,0,5,5,7,,,,,,,,,2,1.3026799539802596,120,001,2019_Oct_23_1524,MusicAffectPsychophysiology2019,3.0.5,59.60538586640935,
To what extent did the music make you feel ,TENDER,30MonoWAV/30MonoH4.wav,2,2,1,8,,,,,0,11,11,7,0,6,6,10,,,,,,,,,1,2.303233753016684,120,001,2019_Oct_23_1524,MusicAffectPsychophysiology2019,3.0.5,59.60538586640935,
To what extent did the music make you feel ,ACTIVE,30MonoWAV/30MonoH4.wav,2,2,1,8,,,,,0,11,11,7,0,7,7,9,,,,,,,,,2,1.285798496042844,120,001,2019_Oct_23_1524,MusicAffectPsychophysiology2019,3.0.5,59.60538586640935,
To what extent did the music make you feel ,FRUSTRATED,30MonoWAV/30MonoH4.wav,2,2,1,8,,,,,0,11,11,7,0,8,8,3,,,,,,,,,1,0.644334671960678,120,001,2019_Oct_23_1524,MusicAffectPsychophysiology2019,3.0.5,59.60538586640935,
To what extent did the music make you feel ,GUILTY,30MonoWAV/30MonoH4.wav,2,2,1,8,,,,,0,11,11,7,0,9,9,5,,,,,,,,,1,2.2026614060159773,120,001,2019_Oct_23_1524,MusicAffectPsychophysiology2019,3.0.5,59.60538586640935,
To what extent did the music make you feel ,SAD,30MonoWAV/30MonoH4.wav,2,2,1,8,,,,,0,11,11,7,0,10,10,0,,,,,,,,,1,1.168666145997122,120,001,2019_Oct_23_1524,MusicAffectPsychophysiology2019,3.0.5,59.60538586640935,
To what extent did the music make you feel ,ANGRY,30MonoWAV/30MonoH4.wav,2,2,1,8,,,,,0,11,11,7,0,11,11,2,,,,,,,,,1,0.7028218689956702,120,001,2019_Oct_23_1524,MusicAffectPsychophysiology2019,3.0.5,59.60538586640935,
,,30MonoWAV/30MonoH4.wav,2,2,1,8,,,,,0,11,11,7,,,,,,,,,,,,,,,120,001,2019_Oct_23_1524,MusicAffectPsychophysiology2019,3.0.5,59.60538586640935,
To what extent did the music make you feel ,GUILTY,30MonoWAV/30MonoH3.wav,2,2,1,7,,,,,0,12,12,6,0,0,0,5,,,3,5.565968248993158,3,2.2529134629876353,1,1.6865860300022177,1,1.1706142839975655,120,001,2019_Oct_23_1524,MusicAffectPsychophysiology2019,3.0.5,59.60538586640935,
To what extent did the music make you feel ,ASHAMED,30MonoWAV/30MonoH3.wav,2,2,1,7,,,,,0,12,12,6,0,1,1,4,,,,,,,,,1,0.48572170501574874,120,001,2019_Oct_23_1524,MusicAffectPsychophysiology2019,3.0.5,59.60538586640935,
To what extent did the music make you feel ,EXCITED,30MonoWAV/30MonoH3.wav,2,2,1,7,,,,,0,12,12,6,0,2,2,7,,,,,,,,,2,1.036411217006389,120,001,2019_Oct_23_1524,MusicAffectPsychophysiology2019,3.0.5,59.60538586640935,
To what extent did the music make you feel ,ALERT,30MonoWAV/30MonoH3.wav,2,2,1,7,,,,,0,12,12,6,0,3,3,8,,,,,,,,,2,3.084905023977626,120,001,2019_Oct_23_1524,MusicAffectPsychophysiology2019,3.0.5,59.60538586640935,
To what extent did the music make you feel ,ANGRY,30MonoWAV/30MonoH3.wav,2,2,1,7,,,,,0,12,12,6,0,4,4,2,,,,,,,,,1,0.6351768600288779,120,001,2019_Oct_23_1524,MusicAffectPsychophysiology2019,3.0.5,59.60538586640935,
To what extent did the music make you feel ,HAPPY,30MonoWAV/30MonoH3.wav,2,2,1,7,,,,,0,12,12,6,0,5,5,6,,,,,,,,,2,3.4026657009962946,120,001,2019_Oct_23_1524,MusicAffectPsychophysiology2019,3.0.5,59.60538586640935,
To what extent did the music make you feel ,ACTIVE,30MonoWAV/30MonoH3.wav,2,2,1,7,,,,,0,12,12,6,0,6,6,9,,,,,,,,,2,1.2853842499898747,120,001,2019_Oct_23_1524,MusicAffectPsychophysiology2019,3.0.5,59.60538586640935,
To what extent did the music make you feel ,SCARED,30MonoWAV/30MonoH3.wav,2,2,1,7,,,,,0,12,12,6,0,7,7,11,,,,,,,,,1,1.0172238029772416,120,001,2019_Oct_23_1524,MusicAffectPsychophysiology2019,3.0.5,59.60538586640935,
To what extent did the music make you feel ,FRUSTRATED,30MonoWAV/30MonoH3.wav,2,2,1,7,,,,,0,12,12,6,0,8,8,3,,,,,,,,,1,1.7378180130035616,120,001,2019_Oct_23_1524,MusicAffectPsychophysiology2019,3.0.5,59.60538586640935,
To what extent did the music make you feel ,TENDER,30MonoWAV/30MonoH3.wav,2,2,1,7,,,,,0,12,12,6,0,9,9,10,,,,,,,,,1,2.017446525976993,120,001,2019_Oct_23_1524,MusicAffectPsychophysiology2019,3.0.5,59.60538586640935,
To what extent did the music make you feel ,ANXIOUS ,30MonoWAV/30MonoH3.wav,2,2,1,7,,,,,0,12,12,6,0,10,10,1,,,,,,,,,1,1.5860032489872538,120,001,2019_Oct_23_1524,MusicAffectPsychophysiology2019,3.0.5,59.60538586640935,
To what extent did the music make you feel ,SAD,30MonoWAV/30MonoH3.wav,2,2,1,7,,,,,0,12,12,6,0,11,11,0,,,,,,,,,1,1.2860269009834155,120,001,2019_Oct_23_1524,MusicAffectPsychophysiology2019,3.0.5,59.60538586640935,
,,30MonoWAV/30MonoH3.wav,2,2,1,7,,,,,0,12,12,6,,,,,,,,,,,,,,,120,001,2019_Oct_23_1524,MusicAffectPsychophysiology2019,3.0.5,59.60538586640935,
To what extent did the music make you feel ,EXCITED,30MonoWAV/30MonoT1.wav,2,1,4,13,,,,,0,13,13,12,0,0,0,7,,,1,4.799931366986129,2,4.969548417022452,1,1.4532379190204665,1,1.5187282940023579,120,001,2019_Oct_23_1524,MusicAffectPsychophysiology2019,3.0.5,59.60538586640935,
To what extent did the music make you feel ,ASHAMED,30MonoWAV/30MonoT1.wav,2,1,4,13,,,,,0,13,13,12,0,1,1,4,,,,,,,,,1,0.6008988399989903,120,001,2019_Oct_23_1524,MusicAffectPsychophysiology2019,3.0.5,59.60538586640935,
To what extent did the music make you feel ,ALERT,30MonoWAV/30MonoT1.wav,2,1,4,13,,,,,0,13,13,12,0,2,2,8,,,,,,,,,1,1.3356415949529037,120,001,2019_Oct_23_1524,MusicAffectPsychophysiology2019,3.0.5,59.60538586640935,
To what extent did the music make you feel ,GUILTY,30MonoWAV/30MonoT1.wav,2,1,4,13,,,,,0,13,13,12,0,3,3,5,,,,,,,,,1,0.5023372190189548,120,001,2019_Oct_23_1524,MusicAffectPsychophysiology2019,3.0.5,59.60538586640935,
To what extent did the music make you feel ,FRUSTRATED,30MonoWAV/30MonoT1.wav,2,1,4,13,,,,,0,13,13,12,0,4,4,3,,,,,,,,,1,0.48142049700254574,120,001,2019_Oct_23_1524,MusicAffectPsychophysiology2019,3.0.5,59.60538586640935,
To what extent did the music make you feel ,TENDER,30MonoWAV/30MonoT1.wav,2,1,4,13,,,,,0,13,13,12,0,5,5,10,,,,,,,,,2,2.1022205630433746,120,001,2019_Oct_23_1524,MusicAffectPsychophysiology2019,3.0.5,59.60538586640935,
To what extent did the music make you feel ,SCARED,30MonoWAV/30MonoT1.wav,2,1,4,13,,,,,0,13,13,12,0,6,6,11,,,,,,,,,1,1.1195357289980166,120,001,2019_Oct_23_1524,MusicAffectPsychophysiology2019,3.0.5,59.60538586640935,
To what extent did the music make you feel ,SAD,30MonoWAV/30MonoT1.wav,2,1,4,13,,,,,0,13,13,12,0,7,7,0,,,,,,,,,1,1.336026713019237,120,001,2019_Oct_23_1524,MusicAffectPsychophysiology2019,3.0.5,59.60538586640935,
To what extent did the music make you feel ,ACTIVE,30MonoWAV/30MonoT1.wav,2,1,4,13,,,,,0,13,13,12,0,8,8,9,,,,,,,,,1,0.9686553840292618,120,001,2019_Oct_23_1524,MusicAffectPsychophysiology2019,3.0.5,59.60538586640935,
To what extent did the music make you feel ,ANGRY,30MonoWAV/30MonoT1.wav,2,1,4,13,,,,,0,13,13,12,0,9,9,2,,,,,,,,,1,0.5031733980285935,120,001,2019_Oct_23_1524,MusicAffectPsychophysiology2019,3.0.5,59.60538586640935,
To what extent did the music make you feel ,ANXIOUS ,30MonoWAV/30MonoT1.wav,2,1,4,13,,,,,0,13,13,12,0,10,10,1,,,,,,,,,1,0.8858885489753447,120,001,2019_Oct_23_1524,MusicAffectPsychophysiology2019,3.0.5,59.60538586640935,
To what extent did the music make you feel ,HAPPY,30MonoWAV/30MonoT1.wav,2,1,4,13,,,,,0,13,13,12,0,11,11,6,,,,,,,,,1,2.1697166319936514,120,001,2019_Oct_23_1524,MusicAffectPsychophysiology2019,3.0.5,59.60538586640935,
,,30MonoWAV/30MonoT1.wav,2,1,4,13,,,,,0,13,13,12,,,,,,,,,,,,,,,120,001,2019_Oct_23_1524,MusicAffectPsychophysiology2019,3.0.5,59.60538586640935,
To what extent did the music make you feel ,GUILTY,30MonoWAV/30MonoH1.wav,2,2,1,5,,,,,0,14,14,4,0,0,0,5,,,3,3.5521301249973476,4,9.41795211902354,5,5.535466497996822,1,1.5728956569801085,120,001,2019_Oct_23_1524,MusicAffectPsychophysiology2019,3.0.5,59.60538586640935,
To what extent did the music make you feel ,TENDER,30MonoWAV/30MonoH1.wav,2,2,1,5,,,,,0,14,14,4,0,1,1,10,,,,,,,,,1,4.251360259018838,120,001,2019_Oct_23_1524,MusicAffectPsychophysiology2019,3.0.5,59.60538586640935,
To what extent did the music make you feel ,SAD,30MonoWAV/30MonoH1.wav,2,2,1,5,,,,,0,14,14,4,0,2,2,0,,,,,,,,,1,0.8844743510126136,120,001,2019_Oct_23_1524,MusicAffectPsychophysiology2019,3.0.5,59.60538586640935,
To what extent did the music make you feel ,HAPPY,30MonoWAV/30MonoH1.wav,2,2,1,5,,,,,0,14,14,4,0,3,3,6,,,,,,,,,3,1.934572740981821,120,001,2019_Oct_23_1524,MusicAffectPsychophysiology2019,3.0.5,59.60538586640935,
To what extent did the music make you feel ,ASHAMED,30MonoWAV/30MonoH1.wav,2,2,1,5,,,,,0,14,14,4,0,4,4,4,,,,,,,,,1,1.8026402610121295,120,001,2019_Oct_23_1524,MusicAffectPsychophysiology2019,3.0.5,59.60538586640935,
To what extent did the music make you feel ,ALERT,30MonoWAV/30MonoH1.wav,2,2,1,5,,,,,0,14,14,4,0,5,5,8,,,,,,,,,2,1.2362303030095063,120,001,2019_Oct_23_1524,MusicAffectPsychophysiology2019,3.0.5,59.60538586640935,
To what extent did the music make you feel ,EXCITED,30MonoWAV/30MonoH1.wav,2,2,1,5,,,,,0,14,14,4,0,6,6,7,,,,,,,,,2,2.7851724970387295,120,001,2019_Oct_23_1524,MusicAffectPsychophysiology2019,3.0.5,59.60538586640935,
To what extent did the music make you feel ,SCARED,30MonoWAV/30MonoH1.wav,2,2,1,5,,,,,0,14,14,4,0,7,7,11,,,,,,,,,1,1.0356710260384716,120,001,2019_Oct_23_1524,MusicAffectPsychophysiology2019,3.0.5,59.60538586640935,
To what extent did the music make you feel ,ANGRY,30MonoWAV/30MonoH1.wav,2,2,1,5,,,,,0,14,14,4,0,8,8,2,,,,,,,,,1,0.48609218996716663,120,001,2019_Oct_23_1524,MusicAffectPsychophysiology2019,3.0.5,59.60538586640935,
To what extent did the music make you feel ,ACTIVE,30MonoWAV/30MonoH1.wav,2,2,1,5,,,,,0,14,14,4,0,9,9,9,,,,,,,,,2,1.6195030329981819,120,001,2019_Oct_23_1524,MusicAffectPsychophysiology2019,3.0.5,59.60538586640935,
To what extent did the music make you feel ,FRUSTRATED,30MonoWAV/30MonoH1.wav,2,2,1,5,,,,,0,14,14,4,0,10,10,3,,,,,,,,,1,1.3878459159750491,120,001,2019_Oct_23_1524,MusicAffectPsychophysiology2019,3.0.5,59.60538586640935,
To what extent did the music make you feel ,ANXIOUS ,30MonoWAV/30MonoH1.wav,2,2,1,5,,,,,0,14,14,4,0,11,11,1,,,,,,,,,1,2.151004272978753,120,001,2019_Oct_23_1524,MusicAffectPsychophysiology2019,3.0.5,59.60538586640935,
,,30MonoWAV/30MonoH1.wav,2,2,1,5,,,,,0,14,14,4,,,,,,,,,,,,,,,120,001,2019_Oct_23_1524,MusicAffectPsychophysiology2019,3.0.5,59.60538586640935,
To what extent did the music make you feel ,ANXIOUS ,30MonoWAV/30MonoF4.wav,1,2,2,4,,,,,0,15,15,3,0,0,0,1,,,2,8.186934956989717,1,1.6844038440031,1,1.0701280959765427,2,4.916639576025773,120,001,2019_Oct_23_1524,MusicAffectPsychophysiology2019,3.0.5,59.60538586640935,
To what extent did the music make you feel ,SAD,30MonoWAV/30MonoF4.wav,1,2,2,4,,,,,0,15,15,3,0,1,1,0,,,,,,,,,1,0.9198907309910282,120,001,2019_Oct_23_1524,MusicAffectPsychophysiology2019,3.0.5,59.60538586640935,
To what extent did the music make you feel ,SCARED,30MonoWAV/30MonoF4.wav,1,2,2,4,,,,,0,15,15,3,0,2,2,11,,,,,,,,,3,2.6343966589774936,120,001,2019_Oct_23_1524,MusicAffectPsychophysiology2019,3.0.5,59.60538586640935,
To what extent did the music make you feel ,GUILTY,30MonoWAV/30MonoF4.wav,1,2,2,4,,,,,0,15,15,3,0,3,3,5,,,,,,,,,1,1.4361349240061827,120,001,2019_Oct_23_1524,MusicAffectPsychophysiology2019,3.0.5,59.60538586640935,
To what extent did the music make you feel ,HAPPY,30MonoWAV/30MonoF4.wav,1,2,2,4,,,,,0,15,15,3,0,4,4,6,,,,,,,,,1,2.268706899951212,120,001,2019_Oct_23_1524,MusicAffectPsychophysiology2019,3.0.5,59.60538586640935,
To what extent did the music make you feel ,ACTIVE,30MonoWAV/30MonoF4.wav,1,2,2,4,,,,,0,15,15,3,0,5,5,9,,,,,,,,,1,6.05209907196695,120,001,2019_Oct_23_1524,MusicAffectPsychophysiology2019,3.0.5,59.60538586640935,
To what extent did the music make you feel ,EXCITED,30MonoWAV/30MonoF4.wav,1,2,2,4,,,,,0,15,15,3,0,6,6,7,,,,,,,,,1,3.4013387829763815,120,001,2019_Oct_23_1524,MusicAffectPsychophysiology2019,3.0.5,59.60538586640935,
To what extent did the music make you feel ,TENDER,30MonoWAV/30MonoF4.wav,1,2,2,4,,,,,0,15,15,3,0,7,7,10,,,,,,,,,1,1.1858594609657302,120,001,2019_Oct_23_1524,MusicAffectPsychophysiology2019,3.0.5,59.60538586640935,
To what extent did the music make you feel ,ANGRY,30MonoWAV/30MonoF4.wav,1,2,2,4,,,,,0,15,15,3,0,8,8,2,,,,,,,,,1,0.8368687159963883,120,001,2019_Oct_23_1524,MusicAffectPsychophysiology2019,3.0.5,59.60538586640935,
To what extent did the music make you feel ,ASHAMED,30MonoWAV/30MonoF4.wav,1,2,2,4,,,,,0,15,15,3,0,9,9,4,,,,,,,,,1,0.6349018409964629,120,001,2019_Oct_23_1524,MusicAffectPsychophysiology2019,3.0.5,59.60538586640935,
To what extent did the music make you feel ,ALERT,30MonoWAV/30MonoF4.wav,1,2,2,4,,,,,0,15,15,3,0,10,10,8,,,,,,,,,3,2.5353056020103395,120,001,2019_Oct_23_1524,MusicAffectPsychophysiology2019,3.0.5,59.60538586640935,
To what extent did the music make you feel ,FRUSTRATED,30MonoWAV/30MonoF4.wav,1,2,2,4,,,,,0,15,15,3,0,11,11,3,,,,,,,,,1,1.1125415420392528,120,001,2019_Oct_23_1524,MusicAffectPsychophysiology2019,3.0.5,59.60538586640935,
,,30MonoWAV/30MonoF4.wav,1,2,2,4,,,,,0,15,15,3,,,,,,,,,,,,,,,120,001,2019_Oct_23_1524,MusicAffectPsychophysiology2019,3.0.5,59.60538586640935,
To what extent did the music make you feel ,EXCITED,30MonoWAV/30MonoT1.wav,2,1,4,13,,,,,1,0,16,12,0,0,0,7,,,1,2.719953198044095,1,10.285100249981042,1,0.9180748490034603,1,1.6042072899872437,120,001,2019_Oct_23_1524,MusicAffectPsychophysiology2019,3.0.5,59.60538586640935,
To what extent did the music make you feel ,HAPPY,30MonoWAV/30MonoT1.wav,2,1,4,13,,,,,1,0,16,12,0,1,1,6,,,,,,,,,1,1.019761338015087,120,001,2019_Oct_23_1524,MusicAffectPsychophysiology2019,3.0.5,59.60538586640935,
To what extent did the music make you feel ,SAD,30MonoWAV/30MonoT1.wav,2,1,4,13,,,,,1,0,16,12,0,2,2,0,,,,,,,,,1,3.601483131002169,120,001,2019_Oct_23_1524,MusicAffectPsychophysiology2019,3.0.5,59.60538586640935,
To what extent did the music make you feel ,ALERT,30MonoWAV/30MonoT1.wav,2,1,4,13,,,,,1,0,16,12,0,3,3,8,,,,,,,,,1,1.1854584240354598,120,001,2019_Oct_23_1524,MusicAffectPsychophysiology2019,3.0.5,59.60538586640935,
To what extent did the music make you feel ,FRUSTRATED,30MonoWAV/30MonoT1.wav,2,1,4,13,,,,,1,0,16,12,0,4,4,3,,,,,,,,,1,0.901658678019885,120,001,2019_Oct_23_1524,MusicAffectPsychophysiology2019,3.0.5,59.60538586640935,
To what extent did the music make you feel ,TENDER,30MonoWAV/30MonoT1.wav,2,1,4,13,,,,,1,0,16,12,0,5,5,10,,,,,,,,,2,3.8336039800196886,120,001,2019_Oct_23_1524,MusicAffectPsychophysiology2019,3.0.5,59.60538586640935,
To what extent did the music make you feel ,SCARED,30MonoWAV/30MonoT1.wav,2,1,4,13,,,,,1,0,16,12,0,6,6,11,,,,,,,,,1,0.5350255930097774,120,001,2019_Oct_23_1524,MusicAffectPsychophysiology2019,3.0.5,59.60538586640935,
To what extent did the music make you feel ,ANGRY,30MonoWAV/30MonoT1.wav,2,1,4,13,,,,,1,0,16,12,0,7,7,2,,,,,,,,,1,0.6364299030392431,120,001,2019_Oct_23_1524,MusicAffectPsychophysiology2019,3.0.5,59.60538586640935,
To what extent did the music make you feel ,GUILTY,30MonoWAV/30MonoT1.wav,2,1,4,13,,,,,1,0,16,12,0,8,8,5,,,,,,,,,1,2.2846290139714256,120,001,2019_Oct_23_1524,MusicAffectPsychophysiology2019,3.0.5,59.60538586640935,
To what extent did the music make you feel ,ACTIVE,30MonoWAV/30MonoT1.wav,2,1,4,13,,,,,1,0,16,12,0,9,9,9,,,,,,,,,1,0.9346986800082959,120,001,2019_Oct_23_1524,MusicAffectPsychophysiology2019,3.0.5,59.60538586640935,
To what extent did the music make you feel ,ASHAMED,30MonoWAV/30MonoT1.wav,2,1,4,13,,,,,1,0,16,12,0,10,10,4,,,,,,,,,1,0.569667837000452,120,001,2019_Oct_23_1524,MusicAffectPsychophysiology2019,3.0.5,59.60538586640935,
To what extent did the music make you feel ,ANXIOUS ,30MonoWAV/30MonoT1.wav,2,1,4,13,,,,,1,0,16,12,0,11,11,1,,,,,,,,,1,0.9194639960187487,120,001,2019_Oct_23_1524,MusicAffectPsychophysiology2019,3.0.5,59.60538586640935,
,,30MonoWAV/30MonoT1.wav,2,1,4,13,,,,,1,0,16,12,,,,,,,,,,,,,,,120,001,2019_Oct_23_1524,MusicAffectPsychophysiology2019,3.0.5,59.60538586640935,
To what extent did the music make you feel ,ANXIOUS ,30MonoWAV/30MonoF4.wav,1,2,2,4,,,,,1,1,17,3,0,0,0,1,,,2,2.9523963950341567,1,1.1176051819929853,1,2.720003256050404,4,3.169723481987603,120,001,2019_Oct_23_1524,MusicAffectPsychophysiology2019,3.0.5,59.60538586640935,
To what extent did the music make you feel ,FRUSTRATED,30MonoWAV/30MonoF4.wav,1,2,2,4,,,,,1,1,17,3,0,1,1,3,,,,,,,,,1,2.479471514991019,120,001,2019_Oct_23_1524,MusicAffectPsychophysiology2019,3.0.5,59.60538586640935,
To what extent did the music make you feel ,ASHAMED,30MonoWAV/30MonoF4.wav,1,2,2,4,,,,,1,1,17,3,0,2,2,4,,,,,,,,,1,0.7359329080209136,120,001,2019_Oct_23_1524,MusicAffectPsychophysiology2019,3.0.5,59.60538586640935,
To what extent did the music make you feel ,EXCITED,30MonoWAV/30MonoF4.wav,1,2,2,4,,,,,1,1,17,3,0,3,3,7,,,,,,,,,1,2.165753419045359,120,001,2019_Oct_23_1524,MusicAffectPsychophysiology2019,3.0.5,59.60538586640935,
To what extent did the music make you feel ,HAPPY,30MonoWAV/30MonoF4.wav,1,2,2,4,,,,,1,1,17,3,0,4,4,6,,,,,,,,,1,0.9023581439978443,120,001,2019_Oct_23_1524,MusicAffectPsychophysiology2019,3.0.5,59.60538586640935,
To what extent did the music make you feel ,SAD,30MonoWAV/30MonoF4.wav,1,2,2,4,,,,,1,1,17,3,0,5,5,0,,,,,,,,,1,2.0191983730182983,120,001,2019_Oct_23_1524,MusicAffectPsychophysiology2019,3.0.5,59.60538586640935,
To what extent did the music make you feel ,GUILTY,30MonoWAV/30MonoF4.wav,1,2,2,4,,,,,1,1,17,3,0,6,6,5,,,,,,,,,1,1.0364983169711195,120,001,2019_Oct_23_1524,MusicAffectPsychophysiology2019,3.0.5,59.60538586640935,
To what extent did the music make you feel ,ALERT,30MonoWAV/30MonoF4.wav,1,2,2,4,,,,,1,1,17,3,0,7,7,8,,,,,,,,,4,2.648045930021908,120,001,2019_Oct_23_1524,MusicAffectPsychophysiology2019,3.0.5,59.60538586640935,
To what extent did the music make you feel ,SCARED,30MonoWAV/30MonoF4.wav,1,2,2,4,,,,,1,1,17,3,0,8,8,11,,,,,,,,,4,1.0308157699764706,120,001,2019_Oct_23_1524,MusicAffectPsychophysiology2019,3.0.5,59.60538586640935,
To what extent did the music make you feel ,TENDER,30MonoWAV/30MonoF4.wav,1,2,2,4,,,,,1,1,17,3,0,9,9,10,,,,,,,,,1,1.4861807590350509,120,001,2019_Oct_23_1524,MusicAffectPsychophysiology2019,3.0.5,59.60538586640935,
To what extent did the music make you feel ,ANGRY,30MonoWAV/30MonoF4.wav,1,2,2,4,,,,,1,1,17,3,0,10,10,2,,,,,,,,,1,0.7698298989562318,120,001,2019_Oct_23_1524,MusicAffectPsychophysiology2019,3.0.5,59.60538586640935,
To what extent did the music make you feel ,ACTIVE,30MonoWAV/30MonoF4.wav,1,2,2,4,,,,,1,1,17,3,0,11,11,9,,,,,,,,,1,2.997119269974064,120,001,2019_Oct_23_1524,MusicAffectPsychophysiology2019,3.0.5,59.60538586640935,
,,30MonoWAV/30MonoF4.wav,1,2,2,4,,,,,1,1,17,3,,,,,,,,,,,,,,,120,001,2019_Oct_23_1524,MusicAffectPsychophysiology2019,3.0.5,59.60538586640935,
To what extent did the music make you feel ,ACTIVE,30MonoWAV/30MonoF3.wav,1,2,2,3,,,,,1,2,18,2,0,0,0,9,,,2,3.3687022069934756,2,1.0021933959797025,2,3.8675054940395057,2,6.65229730901774,120,001,2019_Oct_23_1524,MusicAffectPsychophysiology2019,3.0.5,59.60538586640935,
To what extent did the music make you feel ,EXCITED,30MonoWAV/30MonoF3.wav,1,2,2,3,,,,,1,2,18,2,0,1,1,7,,,,,,,,,1,1.235870442003943,120,001,2019_Oct_23_1524,MusicAffectPsychophysiology2019,3.0.5,59.60538586640935,
To what extent did the music make you feel ,ALERT,30MonoWAV/30MonoF3.wav,1,2,2,3,,,,,1,2,18,2,0,2,2,8,,,,,,,,,3,1.3020026839803904,120,001,2019_Oct_23_1524,MusicAffectPsychophysiology2019,3.0.5,59.60538586640935,
To what extent did the music make you feel ,ASHAMED,30MonoWAV/30MonoF3.wav,1,2,2,3,,,,,1,2,18,2,0,3,3,4,,,,,,,,,1,1.0523533369996585,120,001,2019_Oct_23_1524,MusicAffectPsychophysiology2019,3.0.5,59.60538586640935,
To what extent did the music make you feel ,ANGRY,30MonoWAV/30MonoF3.wav,1,2,2,3,,,,,1,2,18,2,0,4,4,2,,,,,,,,,1,0.8687548550078645,120,001,2019_Oct_23_1524,MusicAffectPsychophysiology2019,3.0.5,59.60538586640935,
To what extent did the music make you feel ,GUILTY,30MonoWAV/30MonoF3.wav,1,2,2,3,,,,,1,2,18,2,0,5,5,5,,,,,,,,,1,0.6536977000068873,120,001,2019_Oct_23_1524,MusicAffectPsychophysiology2019,3.0.5,59.60538586640935,
To what extent did the music make you feel ,FRUSTRATED,30MonoWAV/30MonoF3.wav,1,2,2,3,,,,,1,2,18,2,0,6,6,3,,,,,,,,,1,0.5025368629721925,120,001,2019_Oct_23_1524,MusicAffectPsychophysiology2019,3.0.5,59.60538586640935,
To what extent did the music make you feel ,SAD,30MonoWAV/30MonoF3.wav,1,2,2,3,,,,,1,2,18,2,0,7,7,0,,,,,,,,,1,1.1743353769998066,120,001,2019_Oct_23_1524,MusicAffectPsychophysiology2019,3.0.5,59.60538586640935,
To what extent did the music make you feel ,HAPPY,30MonoWAV/30MonoF3.wav,1,2,2,3,,,,,1,2,18,2,0,8,8,6,,,,,,,,,1,1.1515490049496293,120,001,2019_Oct_23_1524,MusicAffectPsychophysiology2019,3.0.5,59.60538586640935,
To what extent did the music make you feel ,ANXIOUS ,30MonoWAV/30MonoF3.wav,1,2,2,3,,,,,1,2,18,2,0,9,9,1,,,,,,,,,3,1.3186190650449134,120,001,2019_Oct_23_1524,MusicAffectPsychophysiology2019,3.0.5,59.60538586640935,
To what extent did the music make you feel ,SCARED,30MonoWAV/30MonoF3.wav,1,2,2,3,,,,,1,2,18,2,0,10,10,11,,,,,,,,,2,6.352402484975755,120,001,2019_Oct_23_1524,MusicAffectPsychophysiology2019,3.0.5,59.60538586640935,
To what extent did the music make you feel ,TENDER,30MonoWAV/30MonoF3.wav,1,2,2,3,,,,,1,2,18,2,0,11,11,10,,,,,,,,,1,1.2363674719817936,120,001,2019_Oct_23_1524,MusicAffectPsychophysiology2019,3.0.5,59.60538586640935,
,,30MonoWAV/30MonoF3.wav,1,2,2,3,,,,,1,2,18,2,,,,,,,,,,,,,,,120,001,2019_Oct_23_1524,MusicAffectPsychophysiology2019,3.0.5,59.60538586640935,
To what extent did the music make you feel ,ALERT,30MonoWAV/30MonoT3.wav,2,1,4,15,,,,,1,3,19,14,0,0,0,8,,,1,4.801885098975617,5,2.7021311559947208,4,8.035175433033146,1,1.4332253010361455,120,001,2019_Oct_23_1524,MusicAffectPsychophysiology2019,3.0.5,59.60538586640935,
To what extent did the music make you feel ,GUILTY,30MonoWAV/30MonoT3.wav,2,1,4,15,,,,,1,3,19,14,0,1,1,5,,,,,,,,,1,4.999952852027491,120,001,2019_Oct_23_1524,MusicAffectPsychophysiology2019,3.0.5,59.60538586640935,
To what extent did the music make you feel ,HAPPY,30MonoWAV/30MonoT3.wav,2,1,4,15,,,,,1,3,19,14,0,2,2,6,,,,,,,,,4,3.7027171649970114,120,001,2019_Oct_23_1524,MusicAffectPsychophysiology2019,3.0.5,59.60538586640935,
To what extent did the music make you feel ,EXCITED,30MonoWAV/30MonoT3.wav,2,1,4,15,,,,,1,3,19,14,0,3,3,7,,,,,,,,,1,2.6191841309773736,120,001,2019_Oct_23_1524,MusicAffectPsychophysiology2019,3.0.5,59.60538586640935,
To what extent did the music make you feel ,ANGRY,30MonoWAV/30MonoT3.wav,2,1,4,15,,,,,1,3,19,14,0,4,4,2,,,,,,,,,1,0.5028806810150854,120,001,2019_Oct_23_1524,MusicAffectPsychophysiology2019,3.0.5,59.60538586640935,
To what extent did the music make you feel ,ACTIVE,30MonoWAV/30MonoT3.wav,2,1,4,15,,,,,1,3,19,14,0,5,5,9,,,,,,,,,1,1.0693762869923376,120,001,2019_Oct_23_1524,MusicAffectPsychophysiology2019,3.0.5,59.60538586640935,
To what extent did the music make you feel ,TENDER,30MonoWAV/30MonoT3.wav,2,1,4,15,,,,,1,3,19,14,0,6,6,10,,,,,,,,,5,2.1857484800275415,120,001,2019_Oct_23_1524,MusicAffectPsychophysiology2019,3.0.5,59.60538586640935,
To what extent did the music make you feel ,ANXIOUS ,30MonoWAV/30MonoT3.wav,2,1,4,15,,,,,1,3,19,14,0,7,7,1,,,,,,,,,1,2.7700204009888694,120,001,2019_Oct_23_1524,MusicAffectPsychophysiology2019,3.0.5,59.60538586640935,
To what extent did the music make you feel ,FRUSTRATED,30MonoWAV/30MonoT3.wav,2,1,4,15,,,,,1,3,19,14,0,8,8,3,,,,,,,,,1,0.8027887640055269,120,001,2019_Oct_23_1524,MusicAffectPsychophysiology2019,3.0.5,59.60538586640935,
To what extent did the music make you feel ,ASHAMED,30MonoWAV/30MonoT3.wav,2,1,4,15,,,,,1,3,19,14,0,9,9,4,,,,,,,,,1,0.48659984103869647,120,001,2019_Oct_23_1524,MusicAffectPsychophysiology2019,3.0.5,59.60538586640935,
To what extent did the music make you feel ,SCARED,30MonoWAV/30MonoT3.wav,2,1,4,15,,,,,1,3,19,14,0,10,10,11,,,,,,,,,1,0.5186929269693792,120,001,2019_Oct_23_1524,MusicAffectPsychophysiology2019,3.0.5,59.60538586640935,
To what extent did the music make you feel ,SAD,30MonoWAV/30MonoT3.wav,2,1,4,15,,,,,1,3,19,14,0,11,11,0,,,,,,,,,1,0.8198791980394162,120,001,2019_Oct_23_1524,MusicAffectPsychophysiology2019,3.0.5,59.60538586640935,
,,30MonoWAV/30MonoT3.wav,2,1,4,15,,,,,1,3,19,14,,,,,,,,,,,,,,,120,001,2019_Oct_23_1524,MusicAffectPsychophysiology2019,3.0.5,59.60538586640935,
To what extent did the music make you feel ,ALERT,30MonoWAV/30MonoS4.wav,1,1,3,12,,,,,1,4,20,11,0,0,0,8,,,1,4.651290457986761,2,8.602218315994833,5,1.7183720769826323,1,1.591197140980512,120,001,2019_Oct_23_1524,MusicAffectPsychophysiology2019,3.0.5,59.60538586640935,
To what extent did the music make you feel ,TENDER,30MonoWAV/30MonoS4.wav,1,1,3,12,,,,,1,4,20,11,0,1,1,10,,,,,,,,,5,6.301216588995885,120,001,2019_Oct_23_1524,MusicAffectPsychophysiology2019,3.0.5,59.60538586640935,
To what extent did the music make you feel ,EXCITED,30MonoWAV/30MonoS4.wav,1,1,3,12,,,,,1,4,20,11,0,2,2,7,,,,,,,,,1,1.1023678989731707,120,001,2019_Oct_23_1524,MusicAffectPsychophysiology2019,3.0.5,59.60538586640935,
To what extent did the music make you feel ,ASHAMED,30MonoWAV/30MonoS4.wav,1,1,3,12,,,,,1,4,20,11,0,3,3,4,,,,,,,,,1,0.8018256049836054,120,001,2019_Oct_23_1524,MusicAffectPsychophysiology2019,3.0.5,59.60538586640935,
To what extent did the music make you feel ,ANXIOUS ,30MonoWAV/30MonoS4.wav,1,1,3,12,,,,,1,4,20,11,0,4,4,1,,,,,,,,,1,1.431297637987882,120,001,2019_Oct_23_1524,MusicAffectPsychophysiology2019,3.0.5,59.60538586640935,
To what extent did the music make you feel ,HAPPY,30MonoWAV/30MonoS4.wav,1,1,3,12,,,,,1,4,20,11,0,5,5,6,,,,,,,,,1,4.2409419970354065,120,001,2019_Oct_23_1524,MusicAffectPsychophysiology2019,3.0.5,59.60538586640935,
To what extent did the music make you feel ,GUILTY,30MonoWAV/30MonoS4.wav,1,1,3,12,,,,,1,4,20,11,0,6,6,5,,,,,,,,,1,2.903244260000065,120,001,2019_Oct_23_1524,MusicAffectPsychophysiology2019,3.0.5,59.60538586640935,
To what extent did the music make you feel ,SCARED,30MonoWAV/30MonoS4.wav,1,1,3,12,,,,,1,4,20,11,0,7,7,11,,,,,,,,,1,0.9360463549965061,120,001,2019_Oct_23_1524,MusicAffectPsychophysiology2019,3.0.5,59.60538586640935,
To what extent did the music make you feel ,ACTIVE,30MonoWAV/30MonoS4.wav,1,1,3,12,,,,,1,4,20,11,0,8,8,9,,,,,,,,,1,2.6198963539791293,120,001,2019_Oct_23_1524,MusicAffectPsychophysiology2019,3.0.5,59.60538586640935,
To what extent did the music make you feel ,SAD,30MonoWAV/30MonoS4.wav,1,1,3,12,,,,,1,4,20,11,0,9,9,0,,,,,,,,,5,3.8359953649924137,120,001,2019_Oct_23_1524,MusicAffectPsychophysiology2019,3.0.5,59.60538586640935,
To what extent did the music make you feel ,ANGRY,30MonoWAV/30MonoS4.wav,1,1,3,12,,,,,1,4,20,11,0,10,10,2,,,,,,,,,1,1.019992449961137,120,001,2019_Oct_23_1524,MusicAffectPsychophysiology2019,3.0.5,59.60538586640935,
To what extent did the music make you feel ,FRUSTRATED,30MonoWAV/30MonoS4.wav,1,1,3,12,,,,,1,4,20,11,0,11,11,3,,,,,,,,,1,1.0212326500331983,120,001,2019_Oct_23_1524,MusicAffectPsychophysiology2019,3.0.5,59.60538586640935,
,,30MonoWAV/30MonoS4.wav,1,1,3,12,,,,,1,4,20,11,,,,,,,,,,,,,,,120,001,2019_Oct_23_1524,MusicAffectPsychophysiology2019,3.0.5,59.60538586640935,
To what extent did the music make you feel ,ANXIOUS ,30MonoWAV/30MonoH3.wav,2,2,1,7,,,,,1,5,21,6,0,0,0,1,,,2,5.201638547005132,2,1.702551174967084,1,1.2361368109704927,1,1.969296467024833,120,001,2019_Oct_23_1524,MusicAffectPsychophysiology2019,3.0.5,59.60538586640935,
To what extent did the music make you feel ,SAD,30MonoWAV/30MonoH3.wav,2,2,1,7,,,,,1,5,21,6,0,1,1,0,,,,,,,,,1,0.6356815149774775,120,001,2019_Oct_23_1524,MusicAffectPsychophysiology2019,3.0.5,59.60538586640935,
To what extent did the music make you feel ,ASHAMED,30MonoWAV/30MonoH3.wav,2,2,1,7,,,,,1,5,21,6,0,2,2,4,,,,,,,,,1,0.8180880970321596,120,001,2019_Oct_23_1524,MusicAffectPsychophysiology2019,3.0.5,59.60538586640935,
To what extent did the music make you feel ,TENDER,30MonoWAV/30MonoH3.wav,2,2,1,7,,,,,1,5,21,6,0,3,3,10,,,,,,,,,1,2.0866804409888573,120,001,2019_Oct_23_1524,MusicAffectPsychophysiology2019,3.0.5,59.60538586640935,
To what extent did the music make you feel ,HAPPY,30MonoWAV/30MonoH3.wav,2,2,1,7,,,,,1,5,21,6,0,4,4,6,,,,,,,,,1,3.851665619004052,120,001,2019_Oct_23_1524,MusicAffectPsychophysiology2019,3.0.5,59.60538586640935,
To what extent did the music make you feel ,FRUSTRATED,30MonoWAV/30MonoH3.wav,2,2,1,7,,,,,1,5,21,6,0,5,5,3,,,,,,,,,1,0.7366330960066989,120,001,2019_Oct_23_1524,MusicAffectPsychophysiology2019,3.0.5,59.60538586640935,
To what extent did the music make you feel ,EXCITED,30MonoWAV/30MonoH3.wav,2,2,1,7,,,,,1,5,21,6,0,6,6,7,,,,,,,,,1,3.1361216210061684,120,001,2019_Oct_23_1524,MusicAffectPsychophysiology2019,3.0.5,59.60538586640935,
To what extent did the music make you feel ,SCARED,30MonoWAV/30MonoH3.wav,2,2,1,7,,,,,1,5,21,6,0,7,7,11,,,,,,,,,1,1.1716403430327773,120,001,2019_Oct_23_1524,MusicAffectPsychophysiology2019,3.0.5,59.60538586640935,
To what extent did the music make you feel ,ANGRY,30MonoWAV/30MonoH3.wav,2,2,1,7,,,,,1,5,21,6,0,8,8,2,,,,,,,,,1,0.8860748989973217,120,001,2019_Oct_23_1524,MusicAffectPsychophysiology2019,3.0.5,59.60538586640935,
To what extent did the music make you feel ,GUILTY,30MonoWAV/30MonoH3.wav,2,2,1,7,,,,,1,5,21,6,0,9,9,5,,,,,,,,,1,0.5700116530060768,120,001,2019_Oct_23_1524,MusicAffectPsychophysiology2019,3.0.5,59.60538586640935,
To what extent did the music make you feel ,ALERT,30MonoWAV/30MonoH3.wav,2,2,1,7,,,,,1,5,21,6,0,10,10,8,,,,,,,,,2,3.65230379399145,120,001,2019_Oct_23_1524,MusicAffectPsychophysiology2019,3.0.5,59.60538586640935,
To what extent did the music make you feel ,ACTIVE,30MonoWAV/30MonoH3.wav,2,2,1,7,,,,,1,5,21,6,0,11,11,9,,,,,,,,,2,4.201888623996638,120,001,2019_Oct_23_1524,MusicAffectPsychophysiology2019,3.0.5,59.60538586640935,
,,30MonoWAV/30MonoH3.wav,2,2,1,7,,,,,1,5,21,6,,,,,,,,,,,,,,,120,001,2019_Oct_23_1524,MusicAffectPsychophysiology2019,3.0.5,59.60538586640935,
To what extent did the music make you feel ,FRUSTRATED,30MonoWAV/30MonoH4.wav,2,2,1,8,,,,,1,6,22,7,0,0,0,3,,,2,4.185981900023762,2,3.201326993003022,2,5.201778011978604,1,1.3589464090182446,120,001,2019_Oct_23_1524,MusicAffectPsychophysiology2019,3.0.5,59.60538586640935,
To what extent did the music make you feel ,HAPPY,30MonoWAV/30MonoH4.wav,2,2,1,8,,,,,1,6,22,7,0,1,1,6,,,,,,,,,2,2.5182757200091146,120,001,2019_Oct_23_1524,MusicAffectPsychophysiology2019,3.0.5,59.60538586640935,
To what extent did the music make you feel ,SCARED,30MonoWAV/30MonoH4.wav,2,2,1,8,,,,,1,6,22,7,0,2,2,11,,,,,,,,,1,0.668904205027502,120,001,2019_Oct_23_1524,MusicAffectPsychophysiology2019,3.0.5,59.60538586640935,
To what extent did the music make you feel ,EXCITED,30MonoWAV/30MonoH4.wav,2,2,1,8,,,,,1,6,22,7,0,3,3,7,,,,,,,,,1,4.4354970419663005,120,001,2019_Oct_23_1524,MusicAffectPsychophysiology2019,3.0.5,59.60538586640935,
To what extent did the music make you feel ,ASHAMED,30MonoWAV/30MonoH4.wav,2,2,1,8,,,,,1,6,22,7,0,4,4,4,,,,,,,,,1,0.4857919080532156,120,001,2019_Oct_23_1524,MusicAffectPsychophysiology2019,3.0.5,59.60538586640935,
To what extent did the music make you feel ,ALERT,30MonoWAV/30MonoH4.wav,2,2,1,8,,,,,1,6,22,7,0,5,5,8,,,,,,,,,1,1.2366183940321207,120,001,2019_Oct_23_1524,MusicAffectPsychophysiology2019,3.0.5,59.60538586640935,
To what extent did the music make you feel ,SAD,30MonoWAV/30MonoH4.wav,2,2,1,8,,,,,1,6,22,7,0,6,6,0,,,,,,,,,1,0.6866868420038372,120,001,2019_Oct_23_1524,MusicAffectPsychophysiology2019,3.0.5,59.60538586640935,
To what extent did the music make you feel ,ACTIVE,30MonoWAV/30MonoH4.wav,2,2,1,8,,,,,1,6,22,7,0,7,7,9,,,,,,,,,2,2.585458195011597,120,001,2019_Oct_23_1524,MusicAffectPsychophysiology2019,3.0.5,59.60538586640935,
To what extent did the music make you feel ,ANGRY,30MonoWAV/30MonoH4.wav,2,2,1,8,,,,,1,6,22,7,0,8,8,2,,,,,,,,,1,0.6194871430052444,120,001,2019_Oct_23_1524,MusicAffectPsychophysiology2019,3.0.5,59.60538586640935,
To what extent did the music make you feel ,ANXIOUS ,30MonoWAV/30MonoH4.wav,2,2,1,8,,,,,1,6,22,7,0,9,9,1,,,,,,,,,1,0.886667046986986,120,001,2019_Oct_23_1524,MusicAffectPsychophysiology2019,3.0.5,59.60538586640935,
To what extent did the music make you feel ,TENDER,30MonoWAV/30MonoH4.wav,2,2,1,8,,,,,1,6,22,7,0,10,10,10,,,,,,,,,1,1.0861885950434953,120,001,2019_Oct_23_1524,MusicAffectPsychophysiology2019,3.0.5,59.60538586640935,
To what extent did the music make you feel ,GUILTY,30MonoWAV/30MonoH4.wav,2,2,1,8,,,,,1,6,22,7,0,11,11,5,,,,,,,,,1,0.5860569860087708,120,001,2019_Oct_23_1524,MusicAffectPsychophysiology2019,3.0.5,59.60538586640935,
,,30MonoWAV/30MonoH4.wav,2,2,1,8,,,,,1,6,22,7,,,,,,,,,,,,,,,120,001,2019_Oct_23_1524,MusicAffectPsychophysiology2019,3.0.5,59.60538586640935,
To what extent did the music make you feel ,SAD,30MonoWAV/30MonoS3.wav,1,1,3,11,,,,,1,7,23,10,0,0,0,0,,,1,6.4183645930024795,1,3.533658528001979,3,2.566602236998733,3,3.4693558440194465,120,001,2019_Oct_23_1524,MusicAffectPsychophysiology2019,3.0.5,59.60538586640935,
To what extent did the music make you feel ,ACTIVE,30MonoWAV/30MonoS3.wav,1,1,3,11,,,,,1,7,23,10,0,1,1,9,,,,,,,,,1,3.6182154230191372,120,001,2019_Oct_23_1524,MusicAffectPsychophysiology2019,3.0.5,59.60538586640935,
To what extent did the music make you feel ,EXCITED,30MonoWAV/30MonoS3.wav,1,1,3,11,,,,,1,7,23,10,0,2,2,7,,,,,,,,,1,1.1028596269898117,120,001,2019_Oct_23_1524,MusicAffectPsychophysiology2019,3.0.5,59.60538586640935,
To what extent did the music make you feel ,GUILTY,30MonoWAV/30MonoS3.wav,1,1,3,11,,,,,1,7,23,10,0,3,3,5,,,,,,,,,1,2.5525398870231584,120,001,2019_Oct_23_1524,MusicAffectPsychophysiology2019,3.0.5,59.60538586640935,
To what extent did the music make you feel ,SCARED,30MonoWAV/30MonoS3.wav,1,1,3,11,,,,,1,7,23,10,0,4,4,11,,,,,,,,,2,1.8162025039782748,120,001,2019_Oct_23_1524,MusicAffectPsychophysiology2019,3.0.5,59.60538586640935,
To what extent did the music make you feel ,HAPPY,30MonoWAV/30MonoS3.wav,1,1,3,11,,,,,1,7,23,10,0,5,5,6,,,,,,,,,1,2.25172634300543,120,001,2019_Oct_23_1524,MusicAffectPsychophysiology2019,3.0.5,59.60538586640935,
To what extent did the music make you feel ,FRUSTRATED,30MonoWAV/30MonoS3.wav,1,1,3,11,,,,,1,7,23,10,0,6,6,3,,,,,,,,,1,0.7188684739521705,120,001,2019_Oct_23_1524,MusicAffectPsychophysiology2019,3.0.5,59.60538586640935,
To what extent did the music make you feel ,ANXIOUS ,30MonoWAV/30MonoS3.wav,1,1,3,11,,,,,1,7,23,10,0,7,7,1,,,,,,,,,2,5.416829937021248,120,001,2019_Oct_23_1524,MusicAffectPsychophysiology2019,3.0.5,59.60538586640935,
To what extent did the music make you feel ,TENDER,30MonoWAV/30MonoS3.wav,1,1,3,11,,,,,1,7,23,10,0,8,8,10,,,,,,,,,1,1.3828018629574217,120,001,2019_Oct_23_1524,MusicAffectPsychophysiology2019,3.0.5,59.60538586640935,
To what extent did the music make you feel ,ANGRY,30MonoWAV/30MonoS3.wav,1,1,3,11,,,,,1,7,23,10,0,9,9,2,,,,,,,,,1,1.9858541039866395,120,001,2019_Oct_23_1524,MusicAffectPsychophysiology2019,3.0.5,59.60538586640935,
To what extent did the music make you feel ,ASHAMED,30MonoWAV/30MonoS3.wav,1,1,3,11,,,,,1,7,23,10,0,10,10,4,,,,,,,,,1,0.5999379599816166,120,001,2019_Oct_23_1524,MusicAffectPsychophysiology2019,3.0.5,59.60538586640935,
To what extent did the music make you feel ,ALERT,30MonoWAV/30MonoS3.wav,1,1,3,11,,,,,1,7,23,10,0,11,11,8,,,,,,,,,2,3.86929143499583,120,001,2019_Oct_23_1524,MusicAffectPsychophysiology2019,3.0.5,59.60538586640935,
,,30MonoWAV/30MonoS3.wav,1,1,3,11,,,,,1,7,23,10,,,,,,,,,,,,,,,120,001,2019_Oct_23_1524,MusicAffectPsychophysiology2019,3.0.5,59.60538586640935,
To what extent did the music make you feel ,SCARED,30MonoWAV/30MonoF1.wav,1,2,2,1,,,,,1,8,24,0,0,0,0,11,,,2,3.3687559639802203,1,1.1015951950103045,1,1.9169308450073004,3,1.3926907500135712,120,001,2019_Oct_23_1524,MusicAffectPsychophysiology2019,3.0.5,59.60538586640935,
To what extent did the music make you feel ,SAD,30MonoWAV/30MonoF1.wav,1,2,2,1,,,,,1,8,24,0,0,1,1,0,,,,,,,,,1,1.1680017019971274,120,001,2019_Oct_23_1524,MusicAffectPsychophysiology2019,3.0.5,59.60538586640935,
To what extent did the music make you feel ,FRUSTRATED,30MonoWAV/30MonoF1.wav,1,2,2,1,,,,,1,8,24,0,0,2,2,3,,,,,,,,,1,0.7551326399552636,120,001,2019_Oct_23_1524,MusicAffectPsychophysiology2019,3.0.5,59.60538586640935,
To what extent did the music make you feel ,ANGRY,30MonoWAV/30MonoF1.wav,1,2,2,1,,,,,1,8,24,0,0,3,3,2,,,,,,,,,1,0.7512979010352865,120,001,2019_Oct_23_1524,MusicAffectPsychophysiology2019,3.0.5,59.60538586640935,
To what extent did the music make you feel ,ANXIOUS ,30MonoWAV/30MonoF1.wav,1,2,2,1,,,,,1,8,24,0,0,4,4,1,,,,,,,,,3,2.370006020006258,120,001,2019_Oct_23_1524,MusicAffectPsychophysiology2019,3.0.5,59.60538586640935,
To what extent did the music make you feel ,ALERT,30MonoWAV/30MonoF1.wav,1,2,2,1,,,,,1,8,24,0,0,5,5,8,,,,,,,,,3,3.4828336850041524,120,001,2019_Oct_23_1524,MusicAffectPsychophysiology2019,3.0.5,59.60538586640935,
To what extent did the music make you feel ,ASHAMED,30MonoWAV/30MonoF1.wav,1,2,2,1,,,,,1,8,24,0,0,6,6,4,,,,,,,,,1,0.9019442580174655,120,001,2019_Oct_23_1524,MusicAffectPsychophysiology2019,3.0.5,59.60538586640935,
To what extent did the music make you feel ,EXCITED,30MonoWAV/30MonoF1.wav,1,2,2,1,,,,,1,8,24,0,0,7,7,7,,,,,,,,,1,1.0029908140422776,120,001,2019_Oct_23_1524,MusicAffectPsychophysiology2019,3.0.5,59.60538586640935,
To what extent did the music make you feel ,TENDER,30MonoWAV/30MonoF1.wav,1,2,2,1,,,,,1,8,24,0,0,8,8,10,,,,,,,,,1,0.9361552419723012,120,001,2019_Oct_23_1524,MusicAffectPsychophysiology2019,3.0.5,59.60538586640935,
To what extent did the music make you feel ,HAPPY,30MonoWAV/30MonoF1.wav,1,2,2,1,,,,,1,8,24,0,0,9,9,6,,,,,,,,,1,0.5528071749722585,120,001,2019_Oct_23_1524,MusicAffectPsychophysiology2019,3.0.5,59.60538586640935,
To what extent did the music make you feel ,GUILTY,30MonoWAV/30MonoF1.wav,1,2,2,1,,,,,1,8,24,0,0,10,10,5,,,,,,,,,1,1.7365599010372534,120,001,2019_Oct_23_1524,MusicAffectPsychophysiology2019,3.0.5,59.60538586640935,
To what extent did the music make you feel ,ACTIVE,30MonoWAV/30MonoF1.wav,1,2,2,1,,,,,1,8,24,0,0,11,11,9,,,,,,,,,2,3.05255429900717,120,001,2019_Oct_23_1524,MusicAffectPsychophysiology2019,3.0.5,59.60538586640935,
,,30MonoWAV/30MonoF1.wav,1,2,2,1,,,,,1,8,24,0,,,,,,,,,,,,,,,120,001,2019_Oct_23_1524,MusicAffectPsychophysiology2019,3.0.5,59.60538586640935,
To what extent did the music make you feel ,GUILTY,30MonoWAV/30MonoT4.wav,2,1,4,16,,,,,1,9,25,15,0,0,0,5,,,2,6.951746896025725,5,1.8860752939945087,5,7.9517586849979125,1,1.034979326010216,120,001,2019_Oct_23_1524,MusicAffectPsychophysiology2019,3.0.5,59.60538586640935,
To what extent did the music make you feel ,TENDER,30MonoWAV/30MonoT4.wav,2,1,4,16,,,,,1,9,25,15,0,1,1,10,,,,,,,,,5,2.0526184840127826,120,001,2019_Oct_23_1524,MusicAffectPsychophysiology2019,3.0.5,59.60538586640935,
To what extent did the music make you feel ,ACTIVE,30MonoWAV/30MonoT4.wav,2,1,4,16,,,,,1,9,25,15,0,2,2,9,,,,,,,,,1,1.6033028929959983,120,001,2019_Oct_23_1524,MusicAffectPsychophysiology2019,3.0.5,59.60538586640935,
To what extent did the music make you feel ,FRUSTRATED,30MonoWAV/30MonoT4.wav,2,1,4,16,,,,,1,9,25,15,0,3,3,3,,,,,,,,,1,1.869089897023514,120,001,2019_Oct_23_1524,MusicAffectPsychophysiology2019,3.0.5,59.60538586640935,
To what extent did the music make you feel ,SCARED,30MonoWAV/30MonoT4.wav,2,1,4,16,,,,,1,9,25,15,0,4,4,11,,,,,,,,,1,0.6682951370021328,120,001,2019_Oct_23_1524,MusicAffectPsychophysiology2019,3.0.5,59.60538586640935,
To what extent did the music make you feel ,HAPPY,30MonoWAV/30MonoT4.wav,2,1,4,16,,,,,1,9,25,15,0,5,5,6,,,,,,,,,3,6.534830031974707,120,001,2019_Oct_23_1524,MusicAffectPsychophysiology2019,3.0.5,59.60538586640935,
To what extent did the music make you feel ,ANXIOUS ,30MonoWAV/30MonoT4.wav,2,1,4,16,,,,,1,9,25,15,0,6,6,1,,,,,,,,,1,2.652344811009243,120,001,2019_Oct_23_1524,MusicAffectPsychophysiology2019,3.0.5,59.60538586640935,
To what extent did the music make you feel ,SAD,30MonoWAV/30MonoT4.wav,2,1,4,16,,,,,1,9,25,15,0,7,7,0,,,,,,,,,1,2.9022565779741853,120,001,2019_Oct_23_1524,MusicAffectPsychophysiology2019,3.0.5,59.60538586640935,
To what extent did the music make you feel ,ALERT,30MonoWAV/30MonoT4.wav,2,1,4,16,,,,,1,9,25,15,0,8,8,8,,,,,,,,,1,0.6865785379777662,120,001,2019_Oct_23_1524,MusicAffectPsychophysiology2019,3.0.5,59.60538586640935,
To what extent did the music make you feel ,ASHAMED,30MonoWAV/30MonoT4.wav,2,1,4,16,,,,,1,9,25,15,0,9,9,4,,,,,,,,,1,0.8518874089932069,120,001,2019_Oct_23_1524,MusicAffectPsychophysiology2019,3.0.5,59.60538586640935,
To what extent did the music make you feel ,EXCITED,30MonoWAV/30MonoT4.wav,2,1,4,16,,,,,1,9,25,15,0,10,10,7,,,,,,,,,1,1.3683506959932856,120,001,2019_Oct_23_1524,MusicAffectPsychophysiology2019,3.0.5,59.60538586640935,
To what extent did the music make you feel ,ANGRY,30MonoWAV/30MonoT4.wav,2,1,4,16,,,,,1,9,25,15,0,11,11,2,,,,,,,,,1,1.1197167960344814,120,001,2019_Oct_23_1524,MusicAffectPsychophysiology2019,3.0.5,59.60538586640935,
,,30MonoWAV/30MonoT4.wav,2,1,4,16,,,,,1,9,25,15,,,,,,,,,,,,,,,120,001,2019_Oct_23_1524,MusicAffectPsychophysiology2019,3.0.5,59.60538586640935,
To what extent did the music make you feel ,FRUSTRATED,30MonoWAV/30MonoS1.wav,1,1,3,9,,,,,1,10,26,8,0,0,0,3,,,1,3.2834846759797074,2,2.366191759996582,4,3.1023787139565684,1,3.235259526001755,120,001,2019_Oct_23_1524,MusicAffectPsychophysiology2019,3.0.5,59.60538586640935,
To what extent did the music make you feel ,SAD,30MonoWAV/30MonoS1.wav,1,1,3,9,,,,,1,10,26,8,0,1,1,0,,,,,,,,,3,3.0188636330422014,120,001,2019_Oct_23_1524,MusicAffectPsychophysiology2019,3.0.5,59.60538586640935,
To what extent did the music make you feel ,GUILTY,30MonoWAV/30MonoS1.wav,1,1,3,9,,,,,1,10,26,8,0,2,2,5,,,,,,,,,1,1.1026219599880278,120,001,2019_Oct_23_1524,MusicAffectPsychophysiology2019,3.0.5,59.60538586640935,
To what extent did the music make you feel ,ACTIVE,30MonoWAV/30MonoS1.wav,1,1,3,9,,,,,1,10,26,8,0,3,3,9,,,,,,,,,1,2.2032063599908724,120,001,2019_Oct_23_1524,MusicAffectPsychophysiology2019,3.0.5,59.60538586640935,
To what extent did the music make you feel ,ALERT,30MonoWAV/30MonoS1.wav,1,1,3,9,,,,,1,10,26,8,0,4,4,8,,,,,,,,,1,0.9852060370030813,120,001,2019_Oct_23_1524,MusicAffectPsychophysiology2019,3.0.5,59.60538586640935,
To what extent did the music make you feel ,ANGRY,30MonoWAV/30MonoS1.wav,1,1,3,9,,,,,1,10,26,8,0,5,5,2,,,,,,,,,1,0.48500474402680993,120,001,2019_Oct_23_1524,MusicAffectPsychophysiology2019,3.0.5,59.60538586640935,
To what extent did the music make you feel ,ANXIOUS ,30MonoWAV/30MonoS1.wav,1,1,3,9,,,,,1,10,26,8,0,6,6,1,,,,,,,,,1,2.236414162965957,120,001,2019_Oct_23_1524,MusicAffectPsychophysiology2019,3.0.5,59.60538586640935,
To what extent did the music make you feel ,ASHAMED,30MonoWAV/30MonoS1.wav,1,1,3,9,,,,,1,10,26,8,0,7,7,4,,,,,,,,,4,11.81793345801998,120,001,2019_Oct_23_1524,MusicAffectPsychophysiology2019,3.0.5,59.60538586640935,
To what extent did the music make you feel ,TENDER,30MonoWAV/30MonoS1.wav,1,1,3,9,,,,,1,10,26,8,0,8,8,10,,,,,,,,,2,5.634478581952862,120,001,2019_Oct_23_1524,MusicAffectPsychophysiology2019,3.0.5,59.60538586640935,
To what extent did the music make you feel ,EXCITED,30MonoWAV/30MonoS1.wav,1,1,3,9,,,,,1,10,26,8,0,9,9,7,,,,,,,,,1,2.5501594850211404,120,001,2019_Oct_23_1524,MusicAffectPsychophysiology2019,3.0.5,59.60538586640935,
To what extent did the music make you feel ,HAPPY,30MonoWAV/30MonoS1.wav,1,1,3,9,,,,,1,10,26,8,0,10,10,6,,,,,,,,,1,1.1353729859692976,120,001,2019_Oct_23_1524,MusicAffectPsychophysiology2019,3.0.5,59.60538586640935,
To what extent did the music make you feel ,SCARED,30MonoWAV/30MonoS1.wav,1,1,3,9,,,,,1,10,26,8,0,11,11,11,,,,,,,,,1,0.8516968699987046,120,001,2019_Oct_23_1524,MusicAffectPsychophysiology2019,3.0.5,59.60538586640935,
,,30MonoWAV/30MonoS1.wav,1,1,3,9,,,,,1,10,26,8,,,,,,,,,,,,,,,120,001,2019_Oct_23_1524,MusicAffectPsychophysiology2019,3.0.5,59.60538586640935,
To what extent did the music make you feel ,EXCITED,30MonoWAV/30MonoT2.wav,2,1,4,14,,,,,1,11,27,13,0,0,0,7,,,2,8.386589150992222,5,1.301207136013545,5,0.8183034929679707,2,3.2695081569836475,120,001,2019_Oct_23_1524,MusicAffectPsychophysiology2019,3.0.5,59.60538586640935,
To what extent did the music make you feel ,ACTIVE,30MonoWAV/30MonoT2.wav,2,1,4,14,,,,,1,11,27,13,0,1,1,9,,,,,,,,,1,1.9035556600429118,120,001,2019_Oct_23_1524,MusicAffectPsychophysiology2019,3.0.5,59.60538586640935,
To what extent did the music make you feel ,SAD,30MonoWAV/30MonoT2.wav,2,1,4,14,,,,,1,11,27,13,0,2,2,0,,,,,,,,,2,1.5856673310045153,120,001,2019_Oct_23_1524,MusicAffectPsychophysiology2019,3.0.5,59.60538586640935,
To what extent did the music make you feel ,ANXIOUS ,30MonoWAV/30MonoT2.wav,2,1,4,14,,,,,1,11,27,13,0,3,3,1,,,,,,,,,1,2.3686788189806975,120,001,2019_Oct_23_1524,MusicAffectPsychophysiology2019,3.0.5,59.60538586640935,
To what extent did the music make you feel ,HAPPY,30MonoWAV/30MonoT2.wav,2,1,4,14,,,,,1,11,27,13,0,4,4,6,,,,,,,,,5,5.3863060920266435,120,001,2019_Oct_23_1524,MusicAffectPsychophysiology2019,3.0.5,59.60538586640935,
To what extent did the music make you feel ,ANGRY,30MonoWAV/30MonoT2.wav,2,1,4,14,,,,,1,11,27,13,0,5,5,2,,,,,,,,,1,0.9043785550165921,120,001,2019_Oct_23_1524,MusicAffectPsychophysiology2019,3.0.5,59.60538586640935,
To what extent did the music make you feel ,ALERT,30MonoWAV/30MonoT2.wav,2,1,4,14,,,,,1,11,27,13,0,6,6,8,,,,,,,,,1,1.352600504993461,120,001,2019_Oct_23_1524,MusicAffectPsychophysiology2019,3.0.5,59.60538586640935,
To what extent did the music make you feel ,GUILTY,30MonoWAV/30MonoT2.wav,2,1,4,14,,,,,1,11,27,13,0,7,7,5,,,,,,,,,1,0.5185945340199396,120,001,2019_Oct_23_1524,MusicAffectPsychophysiology2019,3.0.5,59.60538586640935,
To what extent did the music make you feel ,TENDER,30MonoWAV/30MonoT2.wav,2,1,4,14,,,,,1,11,27,13,0,8,8,10,,,,,,,,,5,2.0361506830086,120,001,2019_Oct_23_1524,MusicAffectPsychophysiology2019,3.0.5,59.60538586640935,
To what extent did the music make you feel ,SCARED,30MonoWAV/30MonoT2.wav,2,1,4,14,,,,,1,11,27,13,0,9,9,11,,,,,,,,,1,3.2039198350394145,120,001,2019_Oct_23_1524,MusicAffectPsychophysiology2019,3.0.5,59.60538586640935,
To what extent did the music make you feel ,FRUSTRATED,30MonoWAV/30MonoT2.wav,2,1,4,14,,,,,1,11,27,13,0,10,10,3,,,,,,,,,1,0.998459912952967,120,001,2019_Oct_23_1524,MusicAffectPsychophysiology2019,3.0.5,59.60538586640935,
To what extent did the music make you feel ,ASHAMED,30MonoWAV/30MonoT2.wav,2,1,4,14,,,,,1,11,27,13,0,11,11,4,,,,,,,,,1,5.049743689014576,120,001,2019_Oct_23_1524,MusicAffectPsychophysiology2019,3.0.5,59.60538586640935,
,,30MonoWAV/30MonoT2.wav,2,1,4,14,,,,,1,11,27,13,,,,,,,,,,,,,,,120,001,2019_Oct_23_1524,MusicAffectPsychophysiology2019,3.0.5,59.60538586640935,
To what extent did the music make you feel ,EXCITED,30MonoWAV/30MonoS2.wav,1,1,3,10,,,,,1,12,28,9,0,0,0,7,,,1,3.0525718170101754,1,0.8362515150220133,2,3.8185611350345425,1,1.3414105079718865,120,001,2019_Oct_23_1524,MusicAffectPsychophysiology2019,3.0.5,59.60538586640935,
To what extent did the music make you feel ,GUILTY,30MonoWAV/30MonoS2.wav,1,1,3,10,,,,,1,12,28,9,0,1,1,5,,,,,,,,,2,5.468593803991098,120,001,2019_Oct_23_1524,MusicAffectPsychophysiology2019,3.0.5,59.60538586640935,
To what extent did the music make you feel ,TENDER,30MonoWAV/30MonoS2.wav,1,1,3,10,,,,,1,12,28,9,0,2,2,10,,,,,,,,,2,4.202895398018882,120,001,2019_Oct_23_1524,MusicAffectPsychophysiology2019,3.0.5,59.60538586640935,
To what extent did the music make you feel ,SAD,30MonoWAV/30MonoS2.wav,1,1,3,10,,,,,1,12,28,9,0,3,3,0,,,,,,,,,3,1.2365293530165218,120,001,2019_Oct_23_1524,MusicAffectPsychophysiology2019,3.0.5,59.60538586640935,
To what extent did the music make you feel ,ANGRY,30MonoWAV/30MonoS2.wav,1,1,3,10,,,,,1,12,28,9,0,4,4,2,,,,,,,,,1,1.7688851240091026,120,001,2019_Oct_23_1524,MusicAffectPsychophysiology2019,3.0.5,59.60538586640935,
To what extent did the music make you feel ,ANXIOUS ,30MonoWAV/30MonoS2.wav,1,1,3,10,,,,,1,12,28,9,0,5,5,1,,,,,,,,,1,4.318410026957281,120,001,2019_Oct_23_1524,MusicAffectPsychophysiology2019,3.0.5,59.60538586640935,
To what extent did the music make you feel ,ACTIVE,30MonoWAV/30MonoS2.wav,1,1,3,10,,,,,1,12,28,9,0,6,6,9,,,,,,,,,1,0.7695971970097162,120,001,2019_Oct_23_1524,MusicAffectPsychophysiology2019,3.0.5,59.60538586640935,
To what extent did the music make you feel ,HAPPY,30MonoWAV/30MonoS2.wav,1,1,3,10,,,,,1,12,28,9,0,7,7,6,,,,,,,,,1,1.569607928977348,120,001,2019_Oct_23_1524,MusicAffectPsychophysiology2019,3.0.5,59.60538586640935,
To what extent did the music make you feel ,SCARED,30MonoWAV/30MonoS2.wav,1,1,3,10,,,,,1,12,28,9,0,8,8,11,,,,,,,,,1,0.9363433709950186,120,001,2019_Oct_23_1524,MusicAffectPsychophysiology2019,3.0.5,59.60538586640935,
To what extent did the music make you feel ,FRUSTRATED,30MonoWAV/30MonoS2.wav,1,1,3,10,,,,,1,12,28,9,0,9,9,3,,,,,,,,,1,0.6699901170213707,120,001,2019_Oct_23_1524,MusicAffectPsychophysiology2019,3.0.5,59.60538586640935,
To what extent did the music make you feel ,ASHAMED,30MonoWAV/30MonoS2.wav,1,1,3,10,,,,,1,12,28,9,0,10,10,4,,,,,,,,,1,4.905727177043445,120,001,2019_Oct_23_1524,MusicAffectPsychophysiology2019,3.0.5,59.60538586640935,
To what extent did the music make you feel ,ALERT,30MonoWAV/30MonoS2.wav,1,1,3,10,,,,,1,12,28,9,0,11,11,8,,,,,,,,,1,1.8662865409860387,120,001,2019_Oct_23_1524,MusicAffectPsychophysiology2019,3.0.5,59.60538586640935,
,,30MonoWAV/30MonoS2.wav,1,1,3,10,,,,,1,12,28,9,,,,,,,,,,,,,,,120,001,2019_Oct_23_1524,MusicAffectPsychophysiology2019,3.0.5,59.60538586640935,
To what extent did the music make you feel ,ANGRY,30MonoWAV/30MonoF2.wav,1,2,2,2,,,,,1,13,29,1,0,0,0,2,,,1,6.701676157012116,1,0.8526554799755104,1,1.18532193696592,1,1.050373165984638,120,001,2019_Oct_23_1524,MusicAffectPsychophysiology2019,3.0.5,59.60538586640935,
To what extent did the music make you feel ,EXCITED,30MonoWAV/30MonoF2.wav,1,2,2,2,,,,,1,13,29,1,0,1,1,7,,,,,,,,,1,1.502346638997551,120,001,2019_Oct_23_1524,MusicAffectPsychophysiology2019,3.0.5,59.60538586640935,
To what extent did the music make you feel ,FRUSTRATED,30MonoWAV/30MonoF2.wav,1,2,2,2,,,,,1,13,29,1,0,2,2,3,,,,,,,,,1,1.5856562600238249,120,001,2019_Oct_23_1524,MusicAffectPsychophysiology2019,3.0.5,59.60538586640935,
To what extent did the music make you feel ,ANXIOUS ,30MonoWAV/30MonoF2.wav,1,2,2,2,,,,,1,13,29,1,0,3,3,1,,,,,,,,,5,2.684196342015639,120,001,2019_Oct_23_1524,MusicAffectPsychophysiology2019,3.0.5,59.60538586640935,
To what extent did the music make you feel ,SCARED,30MonoWAV/30MonoF2.wav,1,2,2,2,,,,,1,13,29,1,0,4,4,11,,,,,,,,,5,0.8356331299874,120,001,2019_Oct_23_1524,MusicAffectPsychophysiology2019,3.0.5,59.60538586640935,
To what extent did the music make you feel ,GUILTY,30MonoWAV/30MonoF2.wav,1,2,2,2,,,,,1,13,29,1,0,5,5,5,,,,,,,,,1,1.986710386001505,120,001,2019_Oct_23_1524,MusicAffectPsychophysiology2019,3.0.5,59.60538586640935,
To what extent did the music make you feel ,HAPPY,30MonoWAV/30MonoF2.wav,1,2,2,2,,,,,1,13,29,1,0,6,6,6,,,,,,,,,1,0.8524243499850854,120,001,2019_Oct_23_1524,MusicAffectPsychophysiology2019,3.0.5,59.60538586640935,
To what extent did the music make you feel ,ASHAMED,30MonoWAV/30MonoF2.wav,1,2,2,2,,,,,1,13,29,1,0,7,7,4,,,,,,,,,1,1.3025841799681075,120,001,2019_Oct_23_1524,MusicAffectPsychophysiology2019,3.0.5,59.60538586640935,
To what extent did the music make you feel ,SAD,30MonoWAV/30MonoF2.wav,1,2,2,2,,,,,1,13,29,1,0,8,8,0,,,,,,,,,1,0.8527195630013011,120,001,2019_Oct_23_1524,MusicAffectPsychophysiology2019,3.0.5,59.60538586640935,
To what extent did the music make you feel ,ACTIVE,30MonoWAV/30MonoF2.wav,1,2,2,2,,,,,1,13,29,1,0,9,9,9,,,,,,,,,1,0.98648190300446,120,001,2019_Oct_23_1524,MusicAffectPsychophysiology2019,3.0.5,59.60538586640935,
To what extent did the music make you feel ,ALERT,30MonoWAV/30MonoF2.wav,1,2,2,2,,,,,1,13,29,1,0,10,10,8,,,,,,,,,4,8.701767852995545,120,001,2019_Oct_23_1524,MusicAffectPsychophysiology2019,3.0.5,59.60538586640935,
To what extent did the music make you feel ,TENDER,30MonoWAV/30MonoF2.wav,1,2,2,2,,,,,1,13,29,1,0,11,11,10,,,,,,,,,1,2.5692125480272807,120,001,2019_Oct_23_1524,MusicAffectPsychophysiology2019,3.0.5,59.60538586640935,
,,30MonoWAV/30MonoF2.wav,1,2,2,2,,,,,1,13,29,1,,,,,,,,,,,,,,,120,001,2019_Oct_23_1524,MusicAffectPsychophysiology2019,3.0.5,59.60538586640935,
To what extent did the music make you feel ,TENDER,30MonoWAV/30MonoH1.wav,2,2,1,5,,,,,1,14,30,4,0,0,0,10,,,3,2.6855099799577147,5,9.134904585953336,5,0.9692752530099824,1,4.702022001030855,120,001,2019_Oct_23_1524,MusicAffectPsychophysiology2019,3.0.5,59.60538586640935,
To what extent did the music make you feel ,ALERT,30MonoWAV/30MonoH1.wav,2,2,1,5,,,,,1,14,30,4,0,1,1,8,,,,,,,,,2,1.7691488079726696,120,001,2019_Oct_23_1524,MusicAffectPsychophysiology2019,3.0.5,59.60538586640935,
To what extent did the music make you feel ,FRUSTRATED,30MonoWAV/30MonoH1.wav,2,2,1,5,,,,,1,14,30,4,0,2,2,3,,,,,,,,,1,0.8192830570042133,120,001,2019_Oct_23_1524,MusicAffectPsychophysiology2019,3.0.5,59.60538586640935,
To what extent did the music make you feel ,ASHAMED,30MonoWAV/30MonoH1.wav,2,2,1,5,,,,,1,14,30,4,0,3,3,4,,,,,,,,,1,0.669375587021932,120,001,2019_Oct_23_1524,MusicAffectPsychophysiology2019,3.0.5,59.60538586640935,
To what extent did the music make you feel ,ANGRY,30MonoWAV/30MonoH1.wav,2,2,1,5,,,,,1,14,30,4,0,4,4,2,,,,,,,,,1,0.5665603730012663,120,001,2019_Oct_23_1524,MusicAffectPsychophysiology2019,3.0.5,59.60538586640935,
To what extent did the music make you feel ,GUILTY,30MonoWAV/30MonoH1.wav,2,2,1,5,,,,,1,14,30,4,0,5,5,5,,,,,,,,,1,0.619019171979744,120,001,2019_Oct_23_1524,MusicAffectPsychophysiology2019,3.0.5,59.60538586640935,
To what extent did the music make you feel ,SAD,30MonoWAV/30MonoH1.wav,2,2,1,5,,,,,1,14,30,4,0,6,6,0,,,,,,,,,1,1.4029170779976994,120,001,2019_Oct_23_1524,MusicAffectPsychophysiology2019,3.0.5,59.60538586640935,
To what extent did the music make you feel ,ACTIVE,30MonoWAV/30MonoH1.wav,2,2,1,5,,,,,1,14,30,4,0,7,7,9,,,,,,,,,3,1.8685138080036268,120,001,2019_Oct_23_1524,MusicAffectPsychophysiology2019,3.0.5,59.60538586640935,
To what extent did the music make you feel ,SCARED,30MonoWAV/30MonoH1.wav,2,2,1,5,,,,,1,14,30,4,0,8,8,11,,,,,,,,,1,1.0865510999574326,120,001,2019_Oct_23_1524,MusicAffectPsychophysiology2019,3.0.5,59.60538586640935,
To what extent did the music make you feel ,ANXIOUS ,30MonoWAV/30MonoH1.wav,2,2,1,5,,,,,1,14,30,4,0,9,9,1,,,,,,,,,1,0.7836133319651708,120,001,2019_Oct_23_1524,MusicAffectPsychophysiology2019,3.0.5,59.60538586640935,
To what extent did the music make you feel ,EXCITED,30MonoWAV/30MonoH1.wav,2,2,1,5,,,,,1,14,30,4,0,10,10,7,,,,,,,,,2,2.585007010959089,120,001,2019_Oct_23_1524,MusicAffectPsychophysiology2019,3.0.5,59.60538586640935,
To what extent did the music make you feel ,HAPPY,30MonoWAV/30MonoH1.wav,2,2,1,5,,,,,1,14,30,4,0,11,11,6,,,,,,,,,4,1.4190910349716432,120,001,2019_Oct_23_1524,MusicAffectPsychophysiology2019,3.0.5,59.60538586640935,
,,30MonoWAV/30MonoH1.wav,2,2,1,5,,,,,1,14,30,4,,,,,,,,,,,,,,,120,001,2019_Oct_23_1524,MusicAffectPsychophysiology2019,3.0.5,59.60538586640935,
To what extent did the music make you feel ,ANXIOUS ,30MonoWAV/30MonoH2.wav,2,2,1,6,,,,,1,15,31,5,0,0,0,1,,,1,9.234882336982992,2,1.919421433005482,1,0.987523072049953,1,5.618267818004824,120,001,2019_Oct_23_1524,MusicAffectPsychophysiology2019,3.0.5,59.60538586640935,
To what extent did the music make you feel ,GUILTY,30MonoWAV/30MonoH2.wav,2,2,1,6,,,,,1,15,31,5,0,1,1,5,,,,,,,,,1,2.249630532984156,120,001,2019_Oct_23_1524,MusicAffectPsychophysiology2019,3.0.5,59.60538586640935,
To what extent did the music make you feel ,ALERT,30MonoWAV/30MonoH2.wav,2,2,1,6,,,,,1,15,31,5,0,2,2,8,,,,,,,,,2,5.902556990040466,120,001,2019_Oct_23_1524,MusicAffectPsychophysiology2019,3.0.5,59.60538586640935,
To what extent did the music make you feel ,ASHAMED,30MonoWAV/30MonoH2.wav,2,2,1,6,,,,,1,15,31,5,0,3,3,4,,,,,,,,,1,0.5350678029935807,120,001,2019_Oct_23_1524,MusicAffectPsychophysiology2019,3.0.5,59.60538586640935,
To what extent did the music make you feel ,HAPPY,30MonoWAV/30MonoH2.wav,2,2,1,6,,,,,1,15,31,5,0,4,4,6,,,,,,,,,1,3.1168922620126978,120,001,2019_Oct_23_1524,MusicAffectPsychophysiology2019,3.0.5,59.60538586640935,
To what extent did the music make you feel ,EXCITED,30MonoWAV/30MonoH2.wav,2,2,1,6,,,,,1,15,31,5,0,5,5,7,,,,,,,,,2,1.135991035029292,120,001,2019_Oct_23_1524,MusicAffectPsychophysiology2019,3.0.5,59.60538586640935,
To what extent did the music make you feel ,FRUSTRATED,30MonoWAV/30MonoH2.wav,2,2,1,6,,,,,1,15,31,5,0,6,6,3,,,,,,,,,1,2.4689552719937637,120,001,2019_Oct_23_1524,MusicAffectPsychophysiology2019,3.0.5,59.60538586640935,
To what extent did the music make you feel ,SCARED,30MonoWAV/30MonoH2.wav,2,2,1,6,,,,,1,15,31,5,0,7,7,11,,,,,,,,,1,0.6185552799724974,120,001,2019_Oct_23_1524,MusicAffectPsychophysiology2019,3.0.5,59.60538586640935,
To what extent did the music make you feel ,ACTIVE,30MonoWAV/30MonoH2.wav,2,2,1,6,,,,,1,15,31,5,0,8,8,9,,,,,,,,,2,6.451222962001339,120,001,2019_Oct_23_1524,MusicAffectPsychophysiology2019,3.0.5,59.60538586640935,
To what extent did the music make you feel ,SAD,30MonoWAV/30MonoH2.wav,2,2,1,6,,,,,1,15,31,5,0,9,9,0,,,,,,,,,1,0.6360575100407004,120,001,2019_Oct_23_1524,MusicAffectPsychophysiology2019,3.0.5,59.60538586640935,
To what extent did the music make you feel ,TENDER,30MonoWAV/30MonoH2.wav,2,2,1,6,,,,,1,15,31,5,0,10,10,10,,,,,,,,,1,0.8509203270077705,120,001,2019_Oct_23_1524,MusicAffectPsychophysiology2019,3.0.5,59.60538586640935,
To what extent did the music make you feel ,ANGRY,30MonoWAV/30MonoH2.wav,2,2,1,6,,,,,1,15,31,5,0,11,11,2,,,,,,,,,1,0.5187158759799786,120,001,2019_Oct_23_1524,MusicAffectPsychophysiology2019,3.0.5,59.60538586640935,
,,30MonoWAV/30MonoH2.wav,2,2,1,6,,,,,1,15,31,5,,,,,,,,,,,,,,,120,001,2019_Oct_23_1524,MusicAffectPsychophysiology2019,3.0.5,59.60538586640935,
