Instruction,Word,song,valence,arousal,affectcat,songmark,pracwords.thisRepN,pracwords.thisTrialN,pracwords.thisN,pracwords.thisIndex,songtrials.thisRepN,songtrials.thisTrialN,songtrials.thisN,songtrials.thisIndex,words.thisRepN,words.thisTrialN,words.thisN,words.thisIndex,begin.keys,begin.rt,arousalkey.keys,arousalkey.rt,valencekey.keys,valencekey.rt,likekey.keys,likekey.rt,WordResponse.keys,WordResponse.rt,key_resp_2.keys,key_resp_2.rt,participant,session,date,expName,psychopyVersion,frameRate,
,,,,,,,,,,,,,,,,,,,space,15.903281930019148,,,,,,,,,,,121,001,2019_Oct_23_1626,MusicAffectPsychophysiology2019,3.0.5,None,
,,,,,,,,,,,,,,,,,,,,,3,12.08623279700987,,,,,,,,,121,001,2019_Oct_23_1626,MusicAffectPsychophysiology2019,3.0.5,None,
,,,,,,,,,,,,,,,,,,,,,,,1,5.918643988028634,,,,,,,121,001,2019_Oct_23_1626,MusicAffectPsychophysiology2019,3.0.5,None,
,,,,,,,,,,,,,,,,,,,,,,,,,1,5.685659630049486,,,,,121,001,2019_Oct_23_1626,MusicAffectPsychophysiology2019,3.0.5,None,
To what extent did the music make you feel ,HAPPY,,,,,,0,0,0,6,,,,,,,,,,,,,,,,,1,3.3442590630147606,,,121,001,2019_Oct_23_1626,MusicAffectPsychophysiology2019,3.0.5,None,
To what extent did the music make you feel ,ACTIVE,,,,,,0,1,1,9,,,,,,,,,,,,,,,,,2,5.635335846978705,,,121,001,2019_Oct_23_1626,MusicAffectPsychophysiology2019,3.0.5,None,
To what extent did the music make you feel ,ASHAMED,,,,,,0,2,2,4,,,,,,,,,,,,,,,,,1,3.6700601970078424,,,121,001,2019_Oct_23_1626,MusicAffectPsychophysiology2019,3.0.5,None,
To what extent did the music make you feel ,GUILTY,,,,,,0,3,3,5,,,,,,,,,,,,,,,,,1,1.225256250007078,,,121,001,2019_Oct_23_1626,MusicAffectPsychophysiology2019,3.0.5,None,
To what extent did the music make you feel ,ANXIOUS ,,,,,,0,4,4,1,,,,,,,,,,,,,,,,,4,4.784715101995971,,,121,001,2019_Oct_23_1626,MusicAffectPsychophysiology2019,3.0.5,None,
To what extent did the music make you feel ,FRUSTRATED,,,,,,0,5,5,3,,,,,,,,,,,,,,,,,4,1.4259861579630524,,,121,001,2019_Oct_23_1626,MusicAffectPsychophysiology2019,3.0.5,None,
To what extent did the music make you feel ,ALERT,,,,,,0,6,6,8,,,,,,,,,,,,,,,,,4,2.5173298899899237,,,121,001,2019_Oct_23_1626,MusicAffectPsychophysiology2019,3.0.5,None,
To what extent did the music make you feel ,SCARED,,,,,,0,7,7,11,,,,,,,,,,,,,,,,,1,2.9692056830390356,,,121,001,2019_Oct_23_1626,MusicAffectPsychophysiology2019,3.0.5,None,
To what extent did the music make you feel ,EXCITED,,,,,,0,8,8,7,,,,,,,,,,,,,,,,,1,1.3696174810174853,,,121,001,2019_Oct_23_1626,MusicAffectPsychophysiology2019,3.0.5,None,
To what extent did the music make you feel ,ANGRY,,,,,,0,9,9,2,,,,,,,,,,,,,,,,,3,2.886095378024038,,,121,001,2019_Oct_23_1626,MusicAffectPsychophysiology2019,3.0.5,None,
To what extent did the music make you feel ,SAD,,,,,,0,10,10,0,,,,,,,,,,,,,,,,,1,1.834917909000069,,,121,001,2019_Oct_23_1626,MusicAffectPsychophysiology2019,3.0.5,None,
To what extent did the music make you feel ,TENDER,,,,,,0,11,11,10,,,,,,,,,,,,,,,,,1,1.319327341974713,,,121,001,2019_Oct_23_1626,MusicAffectPsychophysiology2019,3.0.5,None,
To what extent did the music make you feel ,EXCITED,30MonoWAV/30MonoF4.wav,1,2,2,4,,,,,0,0,0,3,0,0,0,7,,,2,15.83180253795581,2,3.7516703589935787,2,4.816189892007969,1,2.1666986490017734,,,121,001,2019_Oct_23_1626,MusicAffectPsychophysiology2019,3.0.5,None,
To what extent did the music make you feel ,HAPPY,30MonoWAV/30MonoF4.wav,1,2,2,4,,,,,0,0,0,3,0,1,1,6,,,,,,,,,1,1.8168233329779468,,,121,001,2019_Oct_23_1626,MusicAffectPsychophysiology2019,3.0.5,None,
To what extent did the music make you feel ,ALERT,30MonoWAV/30MonoF4.wav,1,2,2,4,,,,,0,0,0,3,0,2,2,8,,,,,,,,,3,2.8510481159901246,,,121,001,2019_Oct_23_1626,MusicAffectPsychophysiology2019,3.0.5,None,
To what extent did the music make you feel ,FRUSTRATED,30MonoWAV/30MonoF4.wav,1,2,2,4,,,,,0,0,0,3,0,3,3,3,,,,,,,,,1,2.3528248809743673,,,121,001,2019_Oct_23_1626,MusicAffectPsychophysiology2019,3.0.5,None,
To what extent did the music make you feel ,GUILTY,30MonoWAV/30MonoF4.wav,1,2,2,4,,,,,0,0,0,3,0,4,4,5,,,,,,,,,1,1.0016977539635263,,,121,001,2019_Oct_23_1626,MusicAffectPsychophysiology2019,3.0.5,None,
To what extent did the music make you feel ,ACTIVE,30MonoWAV/30MonoF4.wav,1,2,2,4,,,,,0,0,0,3,0,5,5,9,,,,,,,,,1,1.6357514450210147,,,121,001,2019_Oct_23_1626,MusicAffectPsychophysiology2019,3.0.5,None,
To what extent did the music make you feel ,ASHAMED,30MonoWAV/30MonoF4.wav,1,2,2,4,,,,,0,0,0,3,0,6,6,4,,,,,,,,,1,0.9198539389763027,,,121,001,2019_Oct_23_1626,MusicAffectPsychophysiology2019,3.0.5,None,
To what extent did the music make you feel ,ANXIOUS ,30MonoWAV/30MonoF4.wav,1,2,2,4,,,,,0,0,0,3,0,7,7,1,,,,,,,,,3,1.2690318469540216,,,121,001,2019_Oct_23_1626,MusicAffectPsychophysiology2019,3.0.5,None,
To what extent did the music make you feel ,TENDER,30MonoWAV/30MonoF4.wav,1,2,2,4,,,,,0,0,0,3,0,8,8,10,,,,,,,,,2,1.9683602770091966,,,121,001,2019_Oct_23_1626,MusicAffectPsychophysiology2019,3.0.5,None,
To what extent did the music make you feel ,ANGRY,30MonoWAV/30MonoF4.wav,1,2,2,4,,,,,0,0,0,3,0,9,9,2,,,,,,,,,1,1.300266225996893,,,121,001,2019_Oct_23_1626,MusicAffectPsychophysiology2019,3.0.5,None,
To what extent did the music make you feel ,SCARED,30MonoWAV/30MonoF4.wav,1,2,2,4,,,,,0,0,0,3,0,10,10,11,,,,,,,,,3,2.019236095016822,,,121,001,2019_Oct_23_1626,MusicAffectPsychophysiology2019,3.0.5,None,
To what extent did the music make you feel ,SAD,30MonoWAV/30MonoF4.wav,1,2,2,4,,,,,0,0,0,3,0,11,11,0,,,,,,,,,1,1.0517496640095487,,,121,001,2019_Oct_23_1626,MusicAffectPsychophysiology2019,3.0.5,None,
,,30MonoWAV/30MonoF4.wav,1,2,2,4,,,,,0,0,0,3,,,,,,,,,,,,,,,,,121,001,2019_Oct_23_1626,MusicAffectPsychophysiology2019,3.0.5,None,
To what extent did the music make you feel ,ANGRY,30MonoWAV/30MonoS2.wav,1,1,3,10,,,,,0,1,1,9,0,0,0,2,,,1,4.85151288396446,3,3.053166506055277,3,3.2491434490075335,1,1.8281436170218512,,,121,001,2019_Oct_23_1626,MusicAffectPsychophysiology2019,3.0.5,None,
To what extent did the music make you feel ,ACTIVE,30MonoWAV/30MonoS2.wav,1,1,3,10,,,,,0,1,1,9,0,1,1,9,,,,,,,,,1,1.2878048160346225,,,121,001,2019_Oct_23_1626,MusicAffectPsychophysiology2019,3.0.5,None,
To what extent did the music make you feel ,SCARED,30MonoWAV/30MonoS2.wav,1,1,3,10,,,,,0,1,1,9,0,2,2,11,,,,,,,,,1,0.9361412069993094,,,121,001,2019_Oct_23_1626,MusicAffectPsychophysiology2019,3.0.5,None,
To what extent did the music make you feel ,FRUSTRATED,30MonoWAV/30MonoS2.wav,1,1,3,10,,,,,0,1,1,9,0,3,3,3,,,,,,,,,1,0.7086495159892365,,,121,001,2019_Oct_23_1626,MusicAffectPsychophysiology2019,3.0.5,None,
To what extent did the music make you feel ,ALERT,30MonoWAV/30MonoS2.wav,1,1,3,10,,,,,0,1,1,9,0,4,4,8,,,,,,,,,1,0.9024535050266422,,,121,001,2019_Oct_23_1626,MusicAffectPsychophysiology2019,3.0.5,None,
To what extent did the music make you feel ,HAPPY,30MonoWAV/30MonoS2.wav,1,1,3,10,,,,,0,1,1,9,0,5,5,6,,,,,,,,,2,1.8186513609834947,,,121,001,2019_Oct_23_1626,MusicAffectPsychophysiology2019,3.0.5,None,
To what extent did the music make you feel ,SAD,30MonoWAV/30MonoS2.wav,1,1,3,10,,,,,0,1,1,9,0,6,6,0,,,,,,,,,1,0.8527889599790797,,,121,001,2019_Oct_23_1626,MusicAffectPsychophysiology2019,3.0.5,None,
To what extent did the music make you feel ,TENDER,30MonoWAV/30MonoS2.wav,1,1,3,10,,,,,0,1,1,9,0,7,7,10,,,,,,,,,1,2.750722336990293,,,121,001,2019_Oct_23_1626,MusicAffectPsychophysiology2019,3.0.5,None,
To what extent did the music make you feel ,ASHAMED,30MonoWAV/30MonoS2.wav,1,1,3,10,,,,,0,1,1,9,0,8,8,4,,,,,,,,,1,0.8362883650115691,,,121,001,2019_Oct_23_1626,MusicAffectPsychophysiology2019,3.0.5,None,
To what extent did the music make you feel ,GUILTY,30MonoWAV/30MonoS2.wav,1,1,3,10,,,,,0,1,1,9,0,9,9,5,,,,,,,,,1,0.6362615029793233,,,121,001,2019_Oct_23_1626,MusicAffectPsychophysiology2019,3.0.5,None,
To what extent did the music make you feel ,EXCITED,30MonoWAV/30MonoS2.wav,1,1,3,10,,,,,0,1,1,9,0,10,10,7,,,,,,,,,1,1.1353884750278667,,,121,001,2019_Oct_23_1626,MusicAffectPsychophysiology2019,3.0.5,None,
To what extent did the music make you feel ,ANXIOUS ,30MonoWAV/30MonoS2.wav,1,1,3,10,,,,,0,1,1,9,0,11,11,1,,,,,,,,,1,0.7190108189824969,,,121,001,2019_Oct_23_1626,MusicAffectPsychophysiology2019,3.0.5,None,
,,30MonoWAV/30MonoS2.wav,1,1,3,10,,,,,0,1,1,9,,,,,,,,,,,,,,,,,121,001,2019_Oct_23_1626,MusicAffectPsychophysiology2019,3.0.5,None,
To what extent did the music make you feel ,FRUSTRATED,30MonoWAV/30MonoH3.wav,2,2,1,7,,,,,0,2,2,6,0,0,0,3,,,3,5.468960083031561,3,3.7683929079794325,3,1.41907387500396,1,1.584882478986401,,,121,001,2019_Oct_23_1626,MusicAffectPsychophysiology2019,3.0.5,None,
To what extent did the music make you feel ,ANXIOUS ,30MonoWAV/30MonoH3.wav,2,2,1,7,,,,,0,2,2,6,0,1,1,1,,,,,,,,,1,0.8524056660244241,,,121,001,2019_Oct_23_1626,MusicAffectPsychophysiology2019,3.0.5,None,
To what extent did the music make you feel ,SCARED,30MonoWAV/30MonoH3.wav,2,2,1,7,,,,,0,2,2,6,0,2,2,11,,,,,,,,,1,0.6357015880057588,,,121,001,2019_Oct_23_1626,MusicAffectPsychophysiology2019,3.0.5,None,
To what extent did the music make you feel ,ALERT,30MonoWAV/30MonoH3.wav,2,2,1,7,,,,,0,2,2,6,0,3,3,8,,,,,,,,,3,1.1006044440437108,,,121,001,2019_Oct_23_1626,MusicAffectPsychophysiology2019,3.0.5,None,
To what extent did the music make you feel ,EXCITED,30MonoWAV/30MonoH3.wav,2,2,1,7,,,,,0,2,2,6,0,4,4,7,,,,,,,,,3,1.5360565379960462,,,121,001,2019_Oct_23_1626,MusicAffectPsychophysiology2019,3.0.5,None,
To what extent did the music make you feel ,HAPPY,30MonoWAV/30MonoH3.wav,2,2,1,7,,,,,0,2,2,6,0,5,5,6,,,,,,,,,2,1.6691528810188174,,,121,001,2019_Oct_23_1626,MusicAffectPsychophysiology2019,3.0.5,None,
To what extent did the music make you feel ,GUILTY,30MonoWAV/30MonoH3.wav,2,2,1,7,,,,,0,2,2,6,0,6,6,5,,,,,,,,,1,0.8189906839979813,,,121,001,2019_Oct_23_1626,MusicAffectPsychophysiology2019,3.0.5,None,
To what extent did the music make you feel ,SAD,30MonoWAV/30MonoH3.wav,2,2,1,7,,,,,0,2,2,6,0,7,7,0,,,,,,,,,1,0.6692064829985611,,,121,001,2019_Oct_23_1626,MusicAffectPsychophysiology2019,3.0.5,None,
To what extent did the music make you feel ,TENDER,30MonoWAV/30MonoH3.wav,2,2,1,7,,,,,0,2,2,6,0,8,8,10,,,,,,,,,2,1.8360630070092157,,,121,001,2019_Oct_23_1626,MusicAffectPsychophysiology2019,3.0.5,None,
To what extent did the music make you feel ,ACTIVE,30MonoWAV/30MonoH3.wav,2,2,1,7,,,,,0,2,2,6,0,9,9,9,,,,,,,,,3,1.1038211879786104,,,121,001,2019_Oct_23_1626,MusicAffectPsychophysiology2019,3.0.5,None,
To what extent did the music make you feel ,ASHAMED,30MonoWAV/30MonoH3.wav,2,2,1,7,,,,,0,2,2,6,0,10,10,4,,,,,,,,,1,0.9525462449528277,,,121,001,2019_Oct_23_1626,MusicAffectPsychophysiology2019,3.0.5,None,
To what extent did the music make you feel ,ANGRY,30MonoWAV/30MonoH3.wav,2,2,1,7,,,,,0,2,2,6,0,11,11,2,,,,,,,,,1,1.2021361629595049,,,121,001,2019_Oct_23_1626,MusicAffectPsychophysiology2019,3.0.5,None,
,,30MonoWAV/30MonoH3.wav,2,2,1,7,,,,,0,2,2,6,,,,,,,,,,,,,,,,,121,001,2019_Oct_23_1626,MusicAffectPsychophysiology2019,3.0.5,None,
To what extent did the music make you feel ,EXCITED,30MonoWAV/30MonoS3.wav,1,1,3,11,,,,,0,3,3,10,0,0,0,7,,,1,6.652793382003438,3,2.951728423999157,3,2.6522767519927584,1,1.6804899710114114,,,121,001,2019_Oct_23_1626,MusicAffectPsychophysiology2019,3.0.5,None,
To what extent did the music make you feel ,SCARED,30MonoWAV/30MonoS3.wav,1,1,3,11,,,,,0,3,3,10,0,1,1,11,,,,,,,,,1,0.8687030609580688,,,121,001,2019_Oct_23_1626,MusicAffectPsychophysiology2019,3.0.5,None,
To what extent did the music make you feel ,TENDER,30MonoWAV/30MonoS3.wav,1,1,3,11,,,,,0,3,3,10,0,2,2,10,,,,,,,,,2,1.1338376530329697,,,121,001,2019_Oct_23_1626,MusicAffectPsychophysiology2019,3.0.5,None,
To what extent did the music make you feel ,ANXIOUS ,30MonoWAV/30MonoS3.wav,1,1,3,11,,,,,0,3,3,10,0,3,3,1,,,,,,,,,1,1.0695709300343879,,,121,001,2019_Oct_23_1626,MusicAffectPsychophysiology2019,3.0.5,None,
To what extent did the music make you feel ,ACTIVE,30MonoWAV/30MonoS3.wav,1,1,3,11,,,,,0,3,3,10,0,4,4,9,,,,,,,,,1,1.9194019690039568,,,121,001,2019_Oct_23_1626,MusicAffectPsychophysiology2019,3.0.5,None,
To what extent did the music make you feel ,FRUSTRATED,30MonoWAV/30MonoS3.wav,1,1,3,11,,,,,0,3,3,10,0,5,5,3,,,,,,,,,1,0.7527976930141449,,,121,001,2019_Oct_23_1626,MusicAffectPsychophysiology2019,3.0.5,None,
To what extent did the music make you feel ,ANGRY,30MonoWAV/30MonoS3.wav,1,1,3,11,,,,,0,3,3,10,0,6,6,2,,,,,,,,,1,0.5686907760100439,,,121,001,2019_Oct_23_1626,MusicAffectPsychophysiology2019,3.0.5,None,
To what extent did the music make you feel ,ALERT,30MonoWAV/30MonoS3.wav,1,1,3,11,,,,,0,3,3,10,0,7,7,8,,,,,,,,,2,2.650023651018273,,,121,001,2019_Oct_23_1626,MusicAffectPsychophysiology2019,3.0.5,None,
To what extent did the music make you feel ,ASHAMED,30MonoWAV/30MonoS3.wav,1,1,3,11,,,,,0,3,3,10,0,8,8,4,,,,,,,,,1,0.7863168740295805,,,121,001,2019_Oct_23_1626,MusicAffectPsychophysiology2019,3.0.5,None,
To what extent did the music make you feel ,HAPPY,30MonoWAV/30MonoS3.wav,1,1,3,11,,,,,0,3,3,10,0,9,9,6,,,,,,,,,2,1.4018141360138543,,,121,001,2019_Oct_23_1626,MusicAffectPsychophysiology2019,3.0.5,None,
To what extent did the music make you feel ,GUILTY,30MonoWAV/30MonoS3.wav,1,1,3,11,,,,,0,3,3,10,0,10,10,5,,,,,,,,,1,0.6198156730388291,,,121,001,2019_Oct_23_1626,MusicAffectPsychophysiology2019,3.0.5,None,
To what extent did the music make you feel ,SAD,30MonoWAV/30MonoS3.wav,1,1,3,11,,,,,0,3,3,10,0,11,11,0,,,,,,,,,1,1.0530848339549266,,,121,001,2019_Oct_23_1626,MusicAffectPsychophysiology2019,3.0.5,None,
,,30MonoWAV/30MonoS3.wav,1,1,3,11,,,,,0,3,3,10,,,,,,,,,,,,,,,,,121,001,2019_Oct_23_1626,MusicAffectPsychophysiology2019,3.0.5,None,
To what extent did the music make you feel ,GUILTY,30MonoWAV/30MonoF3.wav,1,2,2,3,,,,,0,4,4,2,0,0,0,5,,,3,5.269680886995047,3,3.785865592013579,4,3.335952990979422,1,1.822848437994253,,,121,001,2019_Oct_23_1626,MusicAffectPsychophysiology2019,3.0.5,None,
To what extent did the music make you feel ,EXCITED,30MonoWAV/30MonoF3.wav,1,2,2,3,,,,,0,4,4,2,0,1,1,7,,,,,,,,,3,2.4364642839645967,,,121,001,2019_Oct_23_1626,MusicAffectPsychophysiology2019,3.0.5,None,
To what extent did the music make you feel ,ANXIOUS ,30MonoWAV/30MonoF3.wav,1,2,2,3,,,,,0,4,4,2,0,2,2,1,,,,,,,,,1,1.268344405980315,,,121,001,2019_Oct_23_1626,MusicAffectPsychophysiology2019,3.0.5,None,
To what extent did the music make you feel ,SCARED,30MonoWAV/30MonoF3.wav,1,2,2,3,,,,,0,4,4,2,0,3,3,11,,,,,,,,,1,0.6184354859869927,,,121,001,2019_Oct_23_1626,MusicAffectPsychophysiology2019,3.0.5,None,
To what extent did the music make you feel ,ACTIVE,30MonoWAV/30MonoF3.wav,1,2,2,3,,,,,0,4,4,2,0,4,4,9,,,,,,,,,3,1.419449381006416,,,121,001,2019_Oct_23_1626,MusicAffectPsychophysiology2019,3.0.5,None,
To what extent did the music make you feel ,ANGRY,30MonoWAV/30MonoF3.wav,1,2,2,3,,,,,0,4,4,2,0,5,5,2,,,,,,,,,1,0.8526129139936529,,,121,001,2019_Oct_23_1626,MusicAffectPsychophysiology2019,3.0.5,None,
To what extent did the music make you feel ,ALERT,30MonoWAV/30MonoF3.wav,1,2,2,3,,,,,0,4,4,2,0,6,6,8,,,,,,,,,3,1.334996556979604,,,121,001,2019_Oct_23_1626,MusicAffectPsychophysiology2019,3.0.5,None,
To what extent did the music make you feel ,ASHAMED,30MonoWAV/30MonoF3.wav,1,2,2,3,,,,,0,4,4,2,0,7,7,4,,,,,,,,,1,1.8829728400451131,,,121,001,2019_Oct_23_1626,MusicAffectPsychophysiology2019,3.0.5,None,
To what extent did the music make you feel ,SAD,30MonoWAV/30MonoF3.wav,1,2,2,3,,,,,0,4,4,2,0,8,8,0,,,,,,,,,1,0.8689143329975195,,,121,001,2019_Oct_23_1626,MusicAffectPsychophysiology2019,3.0.5,None,
To what extent did the music make you feel ,HAPPY,30MonoWAV/30MonoF3.wav,1,2,2,3,,,,,0,4,4,2,0,9,9,6,,,,,,,,,4,2.8691987239872105,,,121,001,2019_Oct_23_1626,MusicAffectPsychophysiology2019,3.0.5,None,
To what extent did the music make you feel ,FRUSTRATED,30MonoWAV/30MonoF3.wav,1,2,2,3,,,,,0,4,4,2,0,10,10,3,,,,,,,,,1,0.9689452640013769,,,121,001,2019_Oct_23_1626,MusicAffectPsychophysiology2019,3.0.5,None,
To what extent did the music make you feel ,TENDER,30MonoWAV/30MonoF3.wav,1,2,2,3,,,,,0,4,4,2,0,11,11,10,,,,,,,,,1,0.06833402201300487,,,121,001,2019_Oct_23_1626,MusicAffectPsychophysiology2019,3.0.5,None,
,,30MonoWAV/30MonoF3.wav,1,2,2,3,,,,,0,4,4,2,,,,,,,,,,,,,,,,,121,001,2019_Oct_23_1626,MusicAffectPsychophysiology2019,3.0.5,None,
To what extent did the music make you feel ,SCARED,30MonoWAV/30MonoF1.wav,1,2,2,1,,,,,0,5,5,0,0,0,0,11,,,3,6.218781216011848,2,7.885636403050739,2,1.8354124080506153,2,1.4672846519970335,,,121,001,2019_Oct_23_1626,MusicAffectPsychophysiology2019,3.0.5,None,
To what extent did the music make you feel ,HAPPY,30MonoWAV/30MonoF1.wav,1,2,2,1,,,,,0,5,5,0,0,1,1,6,,,,,,,,,1,1.06805317098042,,,121,001,2019_Oct_23_1626,MusicAffectPsychophysiology2019,3.0.5,None,
To what extent did the music make you feel ,ACTIVE,30MonoWAV/30MonoF1.wav,1,2,2,1,,,,,0,5,5,0,0,2,2,9,,,,,,,,,1,2.084945949027315,,,121,001,2019_Oct_23_1626,MusicAffectPsychophysiology2019,3.0.5,None,
To what extent did the music make you feel ,SAD,30MonoWAV/30MonoF1.wav,1,2,2,1,,,,,0,5,5,0,0,3,3,0,,,,,,,,,1,0.9192259680130519,,,121,001,2019_Oct_23_1626,MusicAffectPsychophysiology2019,3.0.5,None,
To what extent did the music make you feel ,FRUSTRATED,30MonoWAV/30MonoF1.wav,1,2,2,1,,,,,0,5,5,0,0,4,4,3,,,,,,,,,1,1.00907583697699,,,121,001,2019_Oct_23_1626,MusicAffectPsychophysiology2019,3.0.5,None,
To what extent did the music make you feel ,ANGRY,30MonoWAV/30MonoF1.wav,1,2,2,1,,,,,0,5,5,0,0,5,5,2,,,,,,,,,1,0.8195379530079663,,,121,001,2019_Oct_23_1626,MusicAffectPsychophysiology2019,3.0.5,None,
To what extent did the music make you feel ,GUILTY,30MonoWAV/30MonoF1.wav,1,2,2,1,,,,,0,5,5,0,0,6,6,5,,,,,,,,,1,0.6687075480003841,,,121,001,2019_Oct_23_1626,MusicAffectPsychophysiology2019,3.0.5,None,
To what extent did the music make you feel ,EXCITED,30MonoWAV/30MonoF1.wav,1,2,2,1,,,,,0,5,5,0,0,7,7,7,,,,,,,,,1,2.1018484749947675,,,121,001,2019_Oct_23_1626,MusicAffectPsychophysiology2019,3.0.5,None,
To what extent did the music make you feel ,ALERT,30MonoWAV/30MonoF1.wav,1,2,2,1,,,,,0,5,5,0,0,8,8,8,,,,,,,,,3,1.3331121629453264,,,121,001,2019_Oct_23_1626,MusicAffectPsychophysiology2019,3.0.5,None,
To what extent did the music make you feel ,ASHAMED,30MonoWAV/30MonoF1.wav,1,2,2,1,,,,,0,5,5,0,0,9,9,4,,,,,,,,,1,0.9187798330094665,,,121,001,2019_Oct_23_1626,MusicAffectPsychophysiology2019,3.0.5,None,
To what extent did the music make you feel ,TENDER,30MonoWAV/30MonoF1.wav,1,2,2,1,,,,,0,5,5,0,0,10,10,10,,,,,,,,,2,1.3354278469923884,,,121,001,2019_Oct_23_1626,MusicAffectPsychophysiology2019,3.0.5,None,
To what extent did the music make you feel ,ANXIOUS ,30MonoWAV/30MonoF1.wav,1,2,2,1,,,,,0,5,5,0,0,11,11,1,,,,,,,,,2,1.41133864200674,,,121,001,2019_Oct_23_1626,MusicAffectPsychophysiology2019,3.0.5,None,
,,30MonoWAV/30MonoF1.wav,1,2,2,1,,,,,0,5,5,0,,,,,,,,,,,,,,,,,121,001,2019_Oct_23_1626,MusicAffectPsychophysiology2019,3.0.5,None,
To what extent did the music make you feel ,ANGRY,30MonoWAV/30MonoF2.wav,1,2,2,2,,,,,0,6,6,1,0,0,0,2,,,2,3.8014483739971183,2,3.9681920320144854,2,1.9346339750336483,1,1.707911943027284,,,121,001,2019_Oct_23_1626,MusicAffectPsychophysiology2019,3.0.5,None,
To what extent did the music make you feel ,SCARED,30MonoWAV/30MonoF2.wav,1,2,2,2,,,,,0,6,6,1,0,1,1,11,,,,,,,,,2,2.169469657004811,,,121,001,2019_Oct_23_1626,MusicAffectPsychophysiology2019,3.0.5,None,
To what extent did the music make you feel ,ANXIOUS ,30MonoWAV/30MonoF2.wav,1,2,2,2,,,,,0,6,6,1,0,2,2,1,,,,,,,,,2,1.0501711660181172,,,121,001,2019_Oct_23_1626,MusicAffectPsychophysiology2019,3.0.5,None,
To what extent did the music make you feel ,HAPPY,30MonoWAV/30MonoF2.wav,1,2,2,2,,,,,0,6,6,1,0,3,3,6,,,,,,,,,2,3.1341863960260525,,,121,001,2019_Oct_23_1626,MusicAffectPsychophysiology2019,3.0.5,None,
To what extent did the music make you feel ,GUILTY,30MonoWAV/30MonoF2.wav,1,2,2,2,,,,,0,6,6,1,0,4,4,5,,,,,,,,,1,1.0028024530038238,,,121,001,2019_Oct_23_1626,MusicAffectPsychophysiology2019,3.0.5,None,
To what extent did the music make you feel ,ALERT,30MonoWAV/30MonoF2.wav,1,2,2,2,,,,,0,6,6,1,0,5,5,8,,,,,,,,,3,1.3191546840243973,,,121,001,2019_Oct_23_1626,MusicAffectPsychophysiology2019,3.0.5,None,
To what extent did the music make you feel ,ACTIVE,30MonoWAV/30MonoF2.wav,1,2,2,2,,,,,0,6,6,1,0,6,6,9,,,,,,,,,2,1.5528458940098062,,,121,001,2019_Oct_23_1626,MusicAffectPsychophysiology2019,3.0.5,None,
To what extent did the music make you feel ,SAD,30MonoWAV/30MonoF2.wav,1,2,2,2,,,,,0,6,6,1,0,7,7,0,,,,,,,,,1,1.0020331150153652,,,121,001,2019_Oct_23_1626,MusicAffectPsychophysiology2019,3.0.5,None,
To what extent did the music make you feel ,TENDER,30MonoWAV/30MonoF2.wav,1,2,2,2,,,,,0,6,6,1,0,8,8,10,,,,,,,,,2,1.0855303639546037,,,121,001,2019_Oct_23_1626,MusicAffectPsychophysiology2019,3.0.5,None,
To what extent did the music make you feel ,EXCITED,30MonoWAV/30MonoF2.wav,1,2,2,2,,,,,0,6,6,1,0,9,9,7,,,,,,,,,3,1.9522686769487336,,,121,001,2019_Oct_23_1626,MusicAffectPsychophysiology2019,3.0.5,None,
To what extent did the music make you feel ,ASHAMED,30MonoWAV/30MonoF2.wav,1,2,2,2,,,,,0,6,6,1,0,10,10,4,,,,,,,,,1,0.8018577009788714,,,121,001,2019_Oct_23_1626,MusicAffectPsychophysiology2019,3.0.5,None,
To what extent did the music make you feel ,FRUSTRATED,30MonoWAV/30MonoF2.wav,1,2,2,2,,,,,0,6,6,1,0,11,11,3,,,,,,,,,1,0.8701575980521739,,,121,001,2019_Oct_23_1626,MusicAffectPsychophysiology2019,3.0.5,None,
,,30MonoWAV/30MonoF2.wav,1,2,2,2,,,,,0,6,6,1,,,,,,,,,,,,,,,,,121,001,2019_Oct_23_1626,MusicAffectPsychophysiology2019,3.0.5,None,
To what extent did the music make you feel ,ASHAMED,30MonoWAV/30MonoT3.wav,2,1,4,15,,,,,0,7,7,14,0,0,0,4,,,1,6.185124918003567,1,1.1691454669926316,1,1.2186010989826173,1,0.9698498239740729,,,121,001,2019_Oct_23_1626,MusicAffectPsychophysiology2019,3.0.5,None,
To what extent did the music make you feel ,SCARED,30MonoWAV/30MonoT3.wav,2,1,4,15,,,,,0,7,7,14,0,1,1,11,,,,,,,,,1,0.8020222879713401,,,121,001,2019_Oct_23_1626,MusicAffectPsychophysiology2019,3.0.5,None,
To what extent did the music make you feel ,ANXIOUS ,30MonoWAV/30MonoT3.wav,2,1,4,15,,,,,0,7,7,14,0,2,2,1,,,,,,,,,1,0.6192250540480018,,,121,001,2019_Oct_23_1626,MusicAffectPsychophysiology2019,3.0.5,None,
To what extent did the music make you feel ,FRUSTRATED,30MonoWAV/30MonoT3.wav,2,1,4,15,,,,,0,7,7,14,0,3,3,3,,,,,,,,,1,0.5822545120026916,,,121,001,2019_Oct_23_1626,MusicAffectPsychophysiology2019,3.0.5,None,
To what extent did the music make you feel ,TENDER,30MonoWAV/30MonoT3.wav,2,1,4,15,,,,,0,7,7,14,0,4,4,10,,,,,,,,,1,1.886369623010978,,,121,001,2019_Oct_23_1626,MusicAffectPsychophysiology2019,3.0.5,None,
To what extent did the music make you feel ,ALERT,30MonoWAV/30MonoT3.wav,2,1,4,15,,,,,0,7,7,14,0,5,5,8,,,,,,,,,1,0.8669704679632559,,,121,001,2019_Oct_23_1626,MusicAffectPsychophysiology2019,3.0.5,None,
To what extent did the music make you feel ,GUILTY,30MonoWAV/30MonoT3.wav,2,1,4,15,,,,,0,7,7,14,0,6,6,5,,,,,,,,,1,1.6016822360106744,,,121,001,2019_Oct_23_1626,MusicAffectPsychophysiology2019,3.0.5,None,
To what extent did the music make you feel ,HAPPY,30MonoWAV/30MonoT3.wav,2,1,4,15,,,,,0,7,7,14,0,7,7,6,,,,,,,,,1,1.0524915090063587,,,121,001,2019_Oct_23_1626,MusicAffectPsychophysiology2019,3.0.5,None,
To what extent did the music make you feel ,ANGRY,30MonoWAV/30MonoT3.wav,2,1,4,15,,,,,0,7,7,14,0,8,8,2,,,,,,,,,1,0.8693138129892759,,,121,001,2019_Oct_23_1626,MusicAffectPsychophysiology2019,3.0.5,None,
To what extent did the music make you feel ,ACTIVE,30MonoWAV/30MonoT3.wav,2,1,4,15,,,,,0,7,7,14,0,9,9,9,,,,,,,,,1,1.2688256159890443,,,121,001,2019_Oct_23_1626,MusicAffectPsychophysiology2019,3.0.5,None,
To what extent did the music make you feel ,SAD,30MonoWAV/30MonoT3.wav,2,1,4,15,,,,,0,7,7,14,0,10,10,0,,,,,,,,,1,1.0519786319928244,,,121,001,2019_Oct_23_1626,MusicAffectPsychophysiology2019,3.0.5,None,
To what extent did the music make you feel ,EXCITED,30MonoWAV/30MonoT3.wav,2,1,4,15,,,,,0,7,7,14,0,11,11,7,,,,,,,,,1,1.0352089399821125,,,121,001,2019_Oct_23_1626,MusicAffectPsychophysiology2019,3.0.5,None,
,,30MonoWAV/30MonoT3.wav,2,1,4,15,,,,,0,7,7,14,,,,,,,,,,,,,,,,,121,001,2019_Oct_23_1626,MusicAffectPsychophysiology2019,3.0.5,None,
To what extent did the music make you feel ,ANGRY,30MonoWAV/30MonoH1.wav,2,2,1,5,,,,,0,8,8,4,0,0,0,2,,,3,3.48576338699786,3,1.3352362199802883,3,4.418697924003936,1,2.4430163420038298,,,121,001,2019_Oct_23_1626,MusicAffectPsychophysiology2019,3.0.5,None,
To what extent did the music make you feel ,ALERT,30MonoWAV/30MonoH1.wav,2,2,1,5,,,,,0,8,8,4,0,1,1,8,,,,,,,,,3,1.8691301500075497,,,121,001,2019_Oct_23_1626,MusicAffectPsychophysiology2019,3.0.5,None,
To what extent did the music make you feel ,SCARED,30MonoWAV/30MonoH1.wav,2,2,1,5,,,,,0,8,8,4,0,2,2,11,,,,,,,,,1,0.7684995559975505,,,121,001,2019_Oct_23_1626,MusicAffectPsychophysiology2019,3.0.5,None,
To what extent did the music make you feel ,GUILTY,30MonoWAV/30MonoH1.wav,2,2,1,5,,,,,0,8,8,4,0,3,3,5,,,,,,,,,1,0.6176075479597785,,,121,001,2019_Oct_23_1626,MusicAffectPsychophysiology2019,3.0.5,None,
To what extent did the music make you feel ,ACTIVE,30MonoWAV/30MonoH1.wav,2,2,1,5,,,,,0,8,8,4,0,4,4,9,,,,,,,,,3,0.969482849992346,,,121,001,2019_Oct_23_1626,MusicAffectPsychophysiology2019,3.0.5,None,
To what extent did the music make you feel ,ANXIOUS ,30MonoWAV/30MonoH1.wav,2,2,1,5,,,,,0,8,8,4,0,5,5,1,,,,,,,,,1,0.751671225996688,,,121,001,2019_Oct_23_1626,MusicAffectPsychophysiology2019,3.0.5,None,
To what extent did the music make you feel ,ASHAMED,30MonoWAV/30MonoH1.wav,2,2,1,5,,,,,0,8,8,4,0,6,6,4,,,,,,,,,1,0.6688725389540195,,,121,001,2019_Oct_23_1626,MusicAffectPsychophysiology2019,3.0.5,None,
To what extent did the music make you feel ,HAPPY,30MonoWAV/30MonoH1.wav,2,2,1,5,,,,,0,8,8,4,0,7,7,6,,,,,,,,,3,1.0028860309976153,,,121,001,2019_Oct_23_1626,MusicAffectPsychophysiology2019,3.0.5,None,
To what extent did the music make you feel ,TENDER,30MonoWAV/30MonoH1.wav,2,2,1,5,,,,,0,8,8,4,0,8,8,10,,,,,,,,,2,2.284880523046013,,,121,001,2019_Oct_23_1626,MusicAffectPsychophysiology2019,3.0.5,None,
To what extent did the music make you feel ,SAD,30MonoWAV/30MonoH1.wav,2,2,1,5,,,,,0,8,8,4,0,9,9,0,,,,,,,,,1,1.4024382770294324,,,121,001,2019_Oct_23_1626,MusicAffectPsychophysiology2019,3.0.5,None,
To what extent did the music make you feel ,FRUSTRATED,30MonoWAV/30MonoH1.wav,2,2,1,5,,,,,0,8,8,4,0,10,10,3,,,,,,,,,1,2.2690477520227432,,,121,001,2019_Oct_23_1626,MusicAffectPsychophysiology2019,3.0.5,None,
To what extent did the music make you feel ,EXCITED,30MonoWAV/30MonoH1.wav,2,2,1,5,,,,,0,8,8,4,0,11,11,7,,,,,,,,,3,3.135380403022282,,,121,001,2019_Oct_23_1626,MusicAffectPsychophysiology2019,3.0.5,None,
,,30MonoWAV/30MonoH1.wav,2,2,1,5,,,,,0,8,8,4,,,,,,,,,,,,,,,,,121,001,2019_Oct_23_1626,MusicAffectPsychophysiology2019,3.0.5,None,
To what extent did the music make you feel ,HAPPY,30MonoWAV/30MonoS1.wav,1,1,3,9,,,,,0,9,9,8,0,0,0,6,,,1,4.518592995998915,1,4.834929474978708,2,1.8501956530380994,1,1.5856144829886034,,,121,001,2019_Oct_23_1626,MusicAffectPsychophysiology2019,3.0.5,None,
To what extent did the music make you feel ,SCARED,30MonoWAV/30MonoS1.wav,1,1,3,9,,,,,0,9,9,8,0,1,1,11,,,,,,,,,1,0.9700389219797216,,,121,001,2019_Oct_23_1626,MusicAffectPsychophysiology2019,3.0.5,None,
To what extent did the music make you feel ,ALERT,30MonoWAV/30MonoS1.wav,1,1,3,9,,,,,0,9,9,8,0,2,2,8,,,,,,,,,1,0.936786817968823,,,121,001,2019_Oct_23_1626,MusicAffectPsychophysiology2019,3.0.5,None,
To what extent did the music make you feel ,ACTIVE,30MonoWAV/30MonoS1.wav,1,1,3,9,,,,,0,9,9,8,0,3,3,9,,,,,,,,,1,0.9690926139592193,,,121,001,2019_Oct_23_1626,MusicAffectPsychophysiology2019,3.0.5,None,
To what extent did the music make you feel ,ANXIOUS ,30MonoWAV/30MonoS1.wav,1,1,3,9,,,,,0,9,9,8,0,4,4,1,,,,,,,,,1,0.9691488439566456,,,121,001,2019_Oct_23_1626,MusicAffectPsychophysiology2019,3.0.5,None,
To what extent did the music make you feel ,GUILTY,30MonoWAV/30MonoS1.wav,1,1,3,9,,,,,0,9,9,8,0,5,5,5,,,,,,,,,1,0.9507804299937561,,,121,001,2019_Oct_23_1626,MusicAffectPsychophysiology2019,3.0.5,None,
To what extent did the music make you feel ,EXCITED,30MonoWAV/30MonoS1.wav,1,1,3,9,,,,,0,9,9,8,0,6,6,7,,,,,,,,,1,1.9356447460013442,,,121,001,2019_Oct_23_1626,MusicAffectPsychophysiology2019,3.0.5,None,
To what extent did the music make you feel ,ANGRY,30MonoWAV/30MonoS1.wav,1,1,3,9,,,,,0,9,9,8,0,7,7,2,,,,,,,,,1,2.0676298289909028,,,121,001,2019_Oct_23_1626,MusicAffectPsychophysiology2019,3.0.5,None,
To what extent did the music make you feel ,FRUSTRATED,30MonoWAV/30MonoS1.wav,1,1,3,9,,,,,0,9,9,8,0,8,8,3,,,,,,,,,1,1.018560501979664,,,121,001,2019_Oct_23_1626,MusicAffectPsychophysiology2019,3.0.5,None,
To what extent did the music make you feel ,ASHAMED,30MonoWAV/30MonoS1.wav,1,1,3,9,,,,,0,9,9,8,0,9,9,4,,,,,,,,,1,1.0191137670190074,,,121,001,2019_Oct_23_1626,MusicAffectPsychophysiology2019,3.0.5,None,
To what extent did the music make you feel ,SAD,30MonoWAV/30MonoS1.wav,1,1,3,9,,,,,0,9,9,8,0,10,10,0,,,,,,,,,1,1.1697826820309274,,,121,001,2019_Oct_23_1626,MusicAffectPsychophysiology2019,3.0.5,None,
To what extent did the music make you feel ,TENDER,30MonoWAV/30MonoS1.wav,1,1,3,9,,,,,0,9,9,8,0,11,11,10,,,,,,,,,2,1.6666717620100826,,,121,001,2019_Oct_23_1626,MusicAffectPsychophysiology2019,3.0.5,None,
,,30MonoWAV/30MonoS1.wav,1,1,3,9,,,,,0,9,9,8,,,,,,,,,,,,,,,,,121,001,2019_Oct_23_1626,MusicAffectPsychophysiology2019,3.0.5,None,
To what extent did the music make you feel ,SCARED,30MonoWAV/30MonoT1.wav,2,1,4,13,,,,,0,10,10,12,0,0,0,11,,,2,7.668447330943309,2,1.251632849976886,3,2.068435341003351,1,1.3282220649998635,,,121,001,2019_Oct_23_1626,MusicAffectPsychophysiology2019,3.0.5,None,
To what extent did the music make you feel ,SAD,30MonoWAV/30MonoT1.wav,2,1,4,13,,,,,0,10,10,12,0,1,1,0,,,,,,,,,1,1.0189023130224086,,,121,001,2019_Oct_23_1626,MusicAffectPsychophysiology2019,3.0.5,None,
To what extent did the music make you feel ,ASHAMED,30MonoWAV/30MonoT1.wav,2,1,4,13,,,,,0,10,10,12,0,2,2,4,,,,,,,,,1,1.0531744220061228,,,121,001,2019_Oct_23_1626,MusicAffectPsychophysiology2019,3.0.5,None,
To what extent did the music make you feel ,HAPPY,30MonoWAV/30MonoT1.wav,2,1,4,13,,,,,0,10,10,12,0,3,3,6,,,,,,,,,2,1.5185696430271491,,,121,001,2019_Oct_23_1626,MusicAffectPsychophysiology2019,3.0.5,None,
To what extent did the music make you feel ,ANXIOUS ,30MonoWAV/30MonoT1.wav,2,1,4,13,,,,,0,10,10,12,0,4,4,1,,,,,,,,,1,0.9367160520050675,,,121,001,2019_Oct_23_1626,MusicAffectPsychophysiology2019,3.0.5,None,
To what extent did the music make you feel ,EXCITED,30MonoWAV/30MonoT1.wav,2,1,4,13,,,,,0,10,10,12,0,5,5,7,,,,,,,,,1,1.1695398910087533,,,121,001,2019_Oct_23_1626,MusicAffectPsychophysiology2019,3.0.5,None,
To what extent did the music make you feel ,FRUSTRATED,30MonoWAV/30MonoT1.wav,2,1,4,13,,,,,0,10,10,12,0,6,6,3,,,,,,,,,1,0.9525387759786099,,,121,001,2019_Oct_23_1626,MusicAffectPsychophysiology2019,3.0.5,None,
To what extent did the music make you feel ,ALERT,30MonoWAV/30MonoT1.wav,2,1,4,13,,,,,0,10,10,12,0,7,7,8,,,,,,,,,1,1.08657611196395,,,121,001,2019_Oct_23_1626,MusicAffectPsychophysiology2019,3.0.5,None,
To what extent did the music make you feel ,ACTIVE,30MonoWAV/30MonoT1.wav,2,1,4,13,,,,,0,10,10,12,0,8,8,9,,,,,,,,,2,1.6684769729617983,,,121,001,2019_Oct_23_1626,MusicAffectPsychophysiology2019,3.0.5,None,
To what extent did the music make you feel ,TENDER,30MonoWAV/30MonoT1.wav,2,1,4,13,,,,,0,10,10,12,0,9,9,10,,,,,,,,,1,1.216389995010104,,,121,001,2019_Oct_23_1626,MusicAffectPsychophysiology2019,3.0.5,None,
To what extent did the music make you feel ,GUILTY,30MonoWAV/30MonoT1.wav,2,1,4,13,,,,,0,10,10,12,0,10,10,5,,,,,,,,,1,1.1022514749784023,,,121,001,2019_Oct_23_1626,MusicAffectPsychophysiology2019,3.0.5,None,
To what extent did the music make you feel ,ANGRY,30MonoWAV/30MonoT1.wav,2,1,4,13,,,,,0,10,10,12,0,11,11,2,,,,,,,,,1,1.036263982008677,,,121,001,2019_Oct_23_1626,MusicAffectPsychophysiology2019,3.0.5,None,
,,30MonoWAV/30MonoT1.wav,2,1,4,13,,,,,0,10,10,12,,,,,,,,,,,,,,,,,121,001,2019_Oct_23_1626,MusicAffectPsychophysiology2019,3.0.5,None,
To what extent did the music make you feel ,ACTIVE,30MonoWAV/30MonoH2.wav,2,2,1,6,,,,,0,11,11,5,0,0,0,9,,,2,5.81839377299184,2,3.5183038549730554,3,1.9183604290010408,2,1.6885015910374932,,,121,001,2019_Oct_23_1626,MusicAffectPsychophysiology2019,3.0.5,None,
To what extent did the music make you feel ,SCARED,30MonoWAV/30MonoH2.wav,2,2,1,6,,,,,0,11,11,5,0,1,1,11,,,,,,,,,1,0.8864603280089796,,,121,001,2019_Oct_23_1626,MusicAffectPsychophysiology2019,3.0.5,None,
To what extent did the music make you feel ,ALERT,30MonoWAV/30MonoH2.wav,2,2,1,6,,,,,0,11,11,5,0,2,2,8,,,,,,,,,2,1.7194983920198865,,,121,001,2019_Oct_23_1626,MusicAffectPsychophysiology2019,3.0.5,None,
To what extent did the music make you feel ,GUILTY,30MonoWAV/30MonoH2.wav,2,2,1,6,,,,,0,11,11,5,0,3,3,5,,,,,,,,,1,0.68446707399562,,,121,001,2019_Oct_23_1626,MusicAffectPsychophysiology2019,3.0.5,None,
To what extent did the music make you feel ,HAPPY,30MonoWAV/30MonoH2.wav,2,2,1,6,,,,,0,11,11,5,0,4,4,6,,,,,,,,,2,1.2190832819906063,,,121,001,2019_Oct_23_1626,MusicAffectPsychophysiology2019,3.0.5,None,
To what extent did the music make you feel ,ANXIOUS ,30MonoWAV/30MonoH2.wav,2,2,1,6,,,,,0,11,11,5,0,5,5,1,,,,,,,,,1,0.7197582380031236,,,121,001,2019_Oct_23_1626,MusicAffectPsychophysiology2019,3.0.5,None,
To what extent did the music make you feel ,ANGRY,30MonoWAV/30MonoH2.wav,2,2,1,6,,,,,0,11,11,5,0,6,6,2,,,,,,,,,1,0.8675511999754235,,,121,001,2019_Oct_23_1626,MusicAffectPsychophysiology2019,3.0.5,None,
To what extent did the music make you feel ,EXCITED,30MonoWAV/30MonoH2.wav,2,2,1,6,,,,,0,11,11,5,0,7,7,7,,,,,,,,,1,2.6848773219971918,,,121,001,2019_Oct_23_1626,MusicAffectPsychophysiology2019,3.0.5,None,
To what extent did the music make you feel ,ASHAMED,30MonoWAV/30MonoH2.wav,2,2,1,6,,,,,0,11,11,5,0,8,8,4,,,,,,,,,1,0.800879732996691,,,121,001,2019_Oct_23_1626,MusicAffectPsychophysiology2019,3.0.5,None,
To what extent did the music make you feel ,FRUSTRATED,30MonoWAV/30MonoH2.wav,2,2,1,6,,,,,0,11,11,5,0,9,9,3,,,,,,,,,1,0.7355752160074189,,,121,001,2019_Oct_23_1626,MusicAffectPsychophysiology2019,3.0.5,None,
To what extent did the music make you feel ,SAD,30MonoWAV/30MonoH2.wav,2,2,1,6,,,,,0,11,11,5,0,10,10,0,,,,,,,,,1,0.8020890529733151,,,121,001,2019_Oct_23_1626,MusicAffectPsychophysiology2019,3.0.5,None,
To what extent did the music make you feel ,TENDER,30MonoWAV/30MonoH2.wav,2,2,1,6,,,,,0,11,11,5,0,11,11,10,,,,,,,,,2,1.733823021990247,,,121,001,2019_Oct_23_1626,MusicAffectPsychophysiology2019,3.0.5,None,
,,30MonoWAV/30MonoH2.wav,2,2,1,6,,,,,0,11,11,5,,,,,,,,,,,,,,,,,121,001,2019_Oct_23_1626,MusicAffectPsychophysiology2019,3.0.5,None,
To what extent did the music make you feel ,ALERT,30MonoWAV/30MonoT4.wav,2,1,4,16,,,,,0,12,12,15,0,0,0,8,,,1,6.152016845997423,3,3.4683438600040972,3,1.7500274709891528,1,2.080987458990421,,,121,001,2019_Oct_23_1626,MusicAffectPsychophysiology2019,3.0.5,None,
To what extent did the music make you feel ,TENDER,30MonoWAV/30MonoT4.wav,2,1,4,16,,,,,0,12,12,15,0,1,1,10,,,,,,,,,2,1.118778103031218,,,121,001,2019_Oct_23_1626,MusicAffectPsychophysiology2019,3.0.5,None,
To what extent did the music make you feel ,SCARED,30MonoWAV/30MonoT4.wav,2,1,4,16,,,,,0,12,12,15,0,2,2,11,,,,,,,,,1,0.752038368023932,,,121,001,2019_Oct_23_1626,MusicAffectPsychophysiology2019,3.0.5,None,
To what extent did the music make you feel ,FRUSTRATED,30MonoWAV/30MonoT4.wav,2,1,4,16,,,,,0,12,12,15,0,3,3,3,,,,,,,,,1,0.5833143430063501,,,121,001,2019_Oct_23_1626,MusicAffectPsychophysiology2019,3.0.5,None,
To what extent did the music make you feel ,EXCITED,30MonoWAV/30MonoT4.wav,2,1,4,16,,,,,0,12,12,15,0,4,4,7,,,,,,,,,1,0.7868924950016662,,,121,001,2019_Oct_23_1626,MusicAffectPsychophysiology2019,3.0.5,None,
To what extent did the music make you feel ,GUILTY,30MonoWAV/30MonoT4.wav,2,1,4,16,,,,,0,12,12,15,0,5,5,5,,,,,,,,,1,0.5530904509942047,,,121,001,2019_Oct_23_1626,MusicAffectPsychophysiology2019,3.0.5,None,
To what extent did the music make you feel ,ACTIVE,30MonoWAV/30MonoT4.wav,2,1,4,16,,,,,0,12,12,15,0,6,6,9,,,,,,,,,1,0.9542263679904863,,,121,001,2019_Oct_23_1626,MusicAffectPsychophysiology2019,3.0.5,None,
To what extent did the music make you feel ,HAPPY,30MonoWAV/30MonoT4.wav,2,1,4,16,,,,,0,12,12,15,0,7,7,6,,,,,,,,,3,1.1354805830051191,,,121,001,2019_Oct_23_1626,MusicAffectPsychophysiology2019,3.0.5,None,
To what extent did the music make you feel ,ANXIOUS ,30MonoWAV/30MonoT4.wav,2,1,4,16,,,,,0,12,12,15,0,8,8,1,,,,,,,,,1,0.7026930720312521,,,121,001,2019_Oct_23_1626,MusicAffectPsychophysiology2019,3.0.5,None,
To what extent did the music make you feel ,ANGRY,30MonoWAV/30MonoT4.wav,2,1,4,16,,,,,0,12,12,15,0,9,9,2,,,,,,,,,1,0.7534624180407263,,,121,001,2019_Oct_23_1626,MusicAffectPsychophysiology2019,3.0.5,None,
To what extent did the music make you feel ,ASHAMED,30MonoWAV/30MonoT4.wav,2,1,4,16,,,,,0,12,12,15,0,10,10,4,,,,,,,,,1,0.5691313829738647,,,121,001,2019_Oct_23_1626,MusicAffectPsychophysiology2019,3.0.5,None,
To what extent did the music make you feel ,SAD,30MonoWAV/30MonoT4.wav,2,1,4,16,,,,,0,12,12,15,0,11,11,0,,,,,,,,,1,0.5686417739489116,,,121,001,2019_Oct_23_1626,MusicAffectPsychophysiology2019,3.0.5,None,
,,30MonoWAV/30MonoT4.wav,2,1,4,16,,,,,0,12,12,15,,,,,,,,,,,,,,,,,121,001,2019_Oct_23_1626,MusicAffectPsychophysiology2019,3.0.5,None,
To what extent did the music make you feel ,SAD,30MonoWAV/30MonoS4.wav,1,1,3,12,,,,,0,13,13,11,0,0,0,0,,,1,3.5992784019908868,3,2.118665053974837,3,1.3185884459526278,1,1.203987248998601,,,121,001,2019_Oct_23_1626,MusicAffectPsychophysiology2019,3.0.5,None,
To what extent did the music make you feel ,ANGRY,30MonoWAV/30MonoS4.wav,1,1,3,12,,,,,0,13,13,11,0,1,1,2,,,,,,,,,1,0.8022538719815202,,,121,001,2019_Oct_23_1626,MusicAffectPsychophysiology2019,3.0.5,None,
To what extent did the music make you feel ,ALERT,30MonoWAV/30MonoS4.wav,1,1,3,12,,,,,0,13,13,11,0,2,2,8,,,,,,,,,1,1.0519251720397733,,,121,001,2019_Oct_23_1626,MusicAffectPsychophysiology2019,3.0.5,None,
To what extent did the music make you feel ,SCARED,30MonoWAV/30MonoS4.wav,1,1,3,12,,,,,0,13,13,11,0,3,3,11,,,,,,,,,1,0.7999041090370156,,,121,001,2019_Oct_23_1626,MusicAffectPsychophysiology2019,3.0.5,None,
To what extent did the music make you feel ,ANXIOUS ,30MonoWAV/30MonoS4.wav,1,1,3,12,,,,,0,13,13,11,0,4,4,1,,,,,,,,,1,0.837506414973177,,,121,001,2019_Oct_23_1626,MusicAffectPsychophysiology2019,3.0.5,None,
To what extent did the music make you feel ,TENDER,30MonoWAV/30MonoS4.wav,1,1,3,12,,,,,0,13,13,11,0,5,5,10,,,,,,,,,3,1.3910604729899205,,,121,001,2019_Oct_23_1626,MusicAffectPsychophysiology2019,3.0.5,None,
To what extent did the music make you feel ,FRUSTRATED,30MonoWAV/30MonoS4.wav,1,1,3,12,,,,,0,13,13,11,0,6,6,3,,,,,,,,,1,1.0334281789837405,,,121,001,2019_Oct_23_1626,MusicAffectPsychophysiology2019,3.0.5,None,
To what extent did the music make you feel ,ASHAMED,30MonoWAV/30MonoS4.wav,1,1,3,12,,,,,0,13,13,11,0,7,7,4,,,,,,,,,1,1.1733873399789445,,,121,001,2019_Oct_23_1626,MusicAffectPsychophysiology2019,3.0.5,None,
To what extent did the music make you feel ,EXCITED,30MonoWAV/30MonoS4.wav,1,1,3,12,,,,,0,13,13,11,0,8,8,7,,,,,,,,,1,1.1189158729976043,,,121,001,2019_Oct_23_1626,MusicAffectPsychophysiology2019,3.0.5,None,
To what extent did the music make you feel ,ACTIVE,30MonoWAV/30MonoS4.wav,1,1,3,12,,,,,0,13,13,11,0,9,9,9,,,,,,,,,1,1.0352098979637958,,,121,001,2019_Oct_23_1626,MusicAffectPsychophysiology2019,3.0.5,None,
To what extent did the music make you feel ,GUILTY,30MonoWAV/30MonoS4.wav,1,1,3,12,,,,,0,13,13,11,0,10,10,5,,,,,,,,,1,0.9196198469726369,,,121,001,2019_Oct_23_1626,MusicAffectPsychophysiology2019,3.0.5,None,
To what extent did the music make you feel ,HAPPY,30MonoWAV/30MonoS4.wav,1,1,3,12,,,,,0,13,13,11,0,11,11,6,,,,,,,,,3,1.2529364560032263,,,121,001,2019_Oct_23_1626,MusicAffectPsychophysiology2019,3.0.5,None,
,,30MonoWAV/30MonoS4.wav,1,1,3,12,,,,,0,13,13,11,,,,,,,,,,,,,,,,,121,001,2019_Oct_23_1626,MusicAffectPsychophysiology2019,3.0.5,None,
To what extent did the music make you feel ,SCARED,30MonoWAV/30MonoH4.wav,2,2,1,8,,,,,0,14,14,7,0,0,0,11,,,2,3.3183078009751625,2,1.1857232120237313,2,1.2021978499833494,1,1.0356832930119708,,,121,001,2019_Oct_23_1626,MusicAffectPsychophysiology2019,3.0.5,None,
To what extent did the music make you feel ,ANGRY,30MonoWAV/30MonoH4.wav,2,2,1,8,,,,,0,14,14,7,0,1,1,2,,,,,,,,,1,0.6188436669763178,,,121,001,2019_Oct_23_1626,MusicAffectPsychophysiology2019,3.0.5,None,
To what extent did the music make you feel ,ASHAMED,30MonoWAV/30MonoH4.wav,2,2,1,8,,,,,0,14,14,7,0,2,2,4,,,,,,,,,1,0.7017901730141602,,,121,001,2019_Oct_23_1626,MusicAffectPsychophysiology2019,3.0.5,None,
To what extent did the music make you feel ,SAD,30MonoWAV/30MonoH4.wav,2,2,1,8,,,,,0,14,14,7,0,3,3,0,,,,,,,,,1,0.6848500790074468,,,121,001,2019_Oct_23_1626,MusicAffectPsychophysiology2019,3.0.5,None,
To what extent did the music make you feel ,TENDER,30MonoWAV/30MonoH4.wav,2,2,1,8,,,,,0,14,14,7,0,4,4,10,,,,,,,,,1,1.5187096829758957,,,121,001,2019_Oct_23_1626,MusicAffectPsychophysiology2019,3.0.5,None,
To what extent did the music make you feel ,ALERT,30MonoWAV/30MonoH4.wav,2,2,1,8,,,,,0,14,14,7,0,5,5,8,,,,,,,,,3,2.5195026880246587,,,121,001,2019_Oct_23_1626,MusicAffectPsychophysiology2019,3.0.5,None,
To what extent did the music make you feel ,ACTIVE,30MonoWAV/30MonoH4.wav,2,2,1,8,,,,,0,14,14,7,0,6,6,9,,,,,,,,,2,1.3698877810384147,,,121,001,2019_Oct_23_1626,MusicAffectPsychophysiology2019,3.0.5,None,
To what extent did the music make you feel ,FRUSTRATED,30MonoWAV/30MonoH4.wav,2,2,1,8,,,,,0,14,14,7,0,7,7,3,,,,,,,,,1,0.8701082729967311,,,121,001,2019_Oct_23_1626,MusicAffectPsychophysiology2019,3.0.5,None,
To what extent did the music make you feel ,EXCITED,30MonoWAV/30MonoH4.wav,2,2,1,8,,,,,0,14,14,7,0,8,8,7,,,,,,,,,2,2.5192292259889655,,,121,001,2019_Oct_23_1626,MusicAffectPsychophysiology2019,3.0.5,None,
To what extent did the music make you feel ,HAPPY,30MonoWAV/30MonoH4.wav,2,2,1,8,,,,,0,14,14,7,0,9,9,6,,,,,,,,,1,2.5683666390250437,,,121,001,2019_Oct_23_1626,MusicAffectPsychophysiology2019,3.0.5,None,
To what extent did the music make you feel ,ANXIOUS ,30MonoWAV/30MonoH4.wav,2,2,1,8,,,,,0,14,14,7,0,10,10,1,,,,,,,,,1,0.9024037450435571,,,121,001,2019_Oct_23_1626,MusicAffectPsychophysiology2019,3.0.5,None,
To what extent did the music make you feel ,GUILTY,30MonoWAV/30MonoH4.wav,2,2,1,8,,,,,0,14,14,7,0,11,11,5,,,,,,,,,1,0.636621136975009,,,121,001,2019_Oct_23_1626,MusicAffectPsychophysiology2019,3.0.5,None,
,,30MonoWAV/30MonoH4.wav,2,2,1,8,,,,,0,14,14,7,,,,,,,,,,,,,,,,,121,001,2019_Oct_23_1626,MusicAffectPsychophysiology2019,3.0.5,None,
To what extent did the music make you feel ,TENDER,30MonoWAV/30MonoT2.wav,2,1,4,14,,,,,0,15,15,13,0,0,0,10,,,2,2.466366275039036,1,2.069213405949995,1,1.4664251810172573,1,1.3291265440057032,,,121,001,2019_Oct_23_1626,MusicAffectPsychophysiology2019,3.0.5,None,
To what extent did the music make you feel ,ASHAMED,30MonoWAV/30MonoT2.wav,2,1,4,14,,,,,0,15,15,13,0,1,1,4,,,,,,,,,1,0.8531409940333106,,,121,001,2019_Oct_23_1626,MusicAffectPsychophysiology2019,3.0.5,None,
To what extent did the music make you feel ,ACTIVE,30MonoWAV/30MonoT2.wav,2,1,4,14,,,,,0,15,15,13,0,2,2,9,,,,,,,,,1,0.8864227830199525,,,121,001,2019_Oct_23_1626,MusicAffectPsychophysiology2019,3.0.5,None,
To what extent did the music make you feel ,SAD,30MonoWAV/30MonoT2.wav,2,1,4,14,,,,,0,15,15,13,0,3,3,0,,,,,,,,,1,0.9355143989669159,,,121,001,2019_Oct_23_1626,MusicAffectPsychophysiology2019,3.0.5,None,
To what extent did the music make you feel ,HAPPY,30MonoWAV/30MonoT2.wav,2,1,4,14,,,,,0,15,15,13,0,4,4,6,,,,,,,,,1,1.0351753099821508,,,121,001,2019_Oct_23_1626,MusicAffectPsychophysiology2019,3.0.5,None,
To what extent did the music make you feel ,EXCITED,30MonoWAV/30MonoT2.wav,2,1,4,14,,,,,0,15,15,13,0,5,5,7,,,,,,,,,1,0.9698747869697399,,,121,001,2019_Oct_23_1626,MusicAffectPsychophysiology2019,3.0.5,None,
To what extent did the music make you feel ,ALERT,30MonoWAV/30MonoT2.wav,2,1,4,14,,,,,0,15,15,13,0,6,6,8,,,,,,,,,1,0.986246619024314,,,121,001,2019_Oct_23_1626,MusicAffectPsychophysiology2019,3.0.5,None,
To what extent did the music make you feel ,GUILTY,30MonoWAV/30MonoT2.wav,2,1,4,14,,,,,0,15,15,13,0,7,7,5,,,,,,,,,1,0.90382765798131,,,121,001,2019_Oct_23_1626,MusicAffectPsychophysiology2019,3.0.5,None,
To what extent did the music make you feel ,SCARED,30MonoWAV/30MonoT2.wav,2,1,4,14,,,,,0,15,15,13,0,8,8,11,,,,,,,,,1,1.0020699240267277,,,121,001,2019_Oct_23_1626,MusicAffectPsychophysiology2019,3.0.5,None,
To what extent did the music make you feel ,FRUSTRATED,30MonoWAV/30MonoT2.wav,2,1,4,14,,,,,0,15,15,13,0,9,9,3,,,,,,,,,2,1.6854913900024258,,,121,001,2019_Oct_23_1626,MusicAffectPsychophysiology2019,3.0.5,None,
To what extent did the music make you feel ,ANGRY,30MonoWAV/30MonoT2.wav,2,1,4,14,,,,,0,15,15,13,0,10,10,2,,,,,,,,,2,1.3861135040060617,,,121,001,2019_Oct_23_1626,MusicAffectPsychophysiology2019,3.0.5,None,
To what extent did the music make you feel ,ANXIOUS ,30MonoWAV/30MonoT2.wav,2,1,4,14,,,,,0,15,15,13,0,11,11,1,,,,,,,,,1,2.1519514259998687,,,121,001,2019_Oct_23_1626,MusicAffectPsychophysiology2019,3.0.5,None,
,,30MonoWAV/30MonoT2.wav,2,1,4,14,,,,,0,15,15,13,,,,,,,,,,,,,,,,,121,001,2019_Oct_23_1626,MusicAffectPsychophysiology2019,3.0.5,None,
To what extent did the music make you feel ,GUILTY,30MonoWAV/30MonoF1.wav,1,2,2,1,,,,,1,0,16,0,0,0,0,5,,,3,3.4351265650475398,3,2.2356884040054865,3,1.9174671120126732,1,1.3203803019714542,,,121,001,2019_Oct_23_1626,MusicAffectPsychophysiology2019,3.0.5,None,
To what extent did the music make you feel ,ALERT,30MonoWAV/30MonoF1.wav,1,2,2,1,,,,,1,0,16,0,0,1,1,8,,,,,,,,,3,1.002249851997476,,,121,001,2019_Oct_23_1626,MusicAffectPsychophysiology2019,3.0.5,None,
To what extent did the music make you feel ,SCARED,30MonoWAV/30MonoF1.wav,1,2,2,1,,,,,1,0,16,0,0,2,2,11,,,,,,,,,2,1.5521591969882138,,,121,001,2019_Oct_23_1626,MusicAffectPsychophysiology2019,3.0.5,None,
To what extent did the music make you feel ,ANXIOUS ,30MonoWAV/30MonoF1.wav,1,2,2,1,,,,,1,0,16,0,0,3,3,1,,,,,,,,,2,1.2515173880383372,,,121,001,2019_Oct_23_1626,MusicAffectPsychophysiology2019,3.0.5,None,
To what extent did the music make you feel ,TENDER,30MonoWAV/30MonoF1.wav,1,2,2,1,,,,,1,0,16,0,0,4,4,10,,,,,,,,,2,1.1195554250152782,,,121,001,2019_Oct_23_1626,MusicAffectPsychophysiology2019,3.0.5,None,
To what extent did the music make you feel ,EXCITED,30MonoWAV/30MonoF1.wav,1,2,2,1,,,,,1,0,16,0,0,5,5,7,,,,,,,,,3,1.336485748004634,,,121,001,2019_Oct_23_1626,MusicAffectPsychophysiology2019,3.0.5,None,
To what extent did the music make you feel ,ANGRY,30MonoWAV/30MonoF1.wav,1,2,2,1,,,,,1,0,16,0,0,6,6,2,,,,,,,,,1,1.2841134840273298,,,121,001,2019_Oct_23_1626,MusicAffectPsychophysiology2019,3.0.5,None,
To what extent did the music make you feel ,FRUSTRATED,30MonoWAV/30MonoF1.wav,1,2,2,1,,,,,1,0,16,0,0,7,7,3,,,,,,,,,1,1.019527864002157,,,121,001,2019_Oct_23_1626,MusicAffectPsychophysiology2019,3.0.5,None,
To what extent did the music make you feel ,HAPPY,30MonoWAV/30MonoF1.wav,1,2,2,1,,,,,1,0,16,0,0,8,8,6,,,,,,,,,3,1.5019622910185717,,,121,001,2019_Oct_23_1626,MusicAffectPsychophysiology2019,3.0.5,None,
To what extent did the music make you feel ,ASHAMED,30MonoWAV/30MonoF1.wav,1,2,2,1,,,,,1,0,16,0,0,9,9,4,,,,,,,,,1,1.1182422009878792,,,121,001,2019_Oct_23_1626,MusicAffectPsychophysiology2019,3.0.5,None,
To what extent did the music make you feel ,SAD,30MonoWAV/30MonoF1.wav,1,2,2,1,,,,,1,0,16,0,0,10,10,0,,,,,,,,,1,1.0197560809901915,,,121,001,2019_Oct_23_1626,MusicAffectPsychophysiology2019,3.0.5,None,
To what extent did the music make you feel ,ACTIVE,30MonoWAV/30MonoF1.wav,1,2,2,1,,,,,1,0,16,0,0,11,11,9,,,,,,,,,3,1.3030616220203228,,,121,001,2019_Oct_23_1626,MusicAffectPsychophysiology2019,3.0.5,None,
,,30MonoWAV/30MonoF1.wav,1,2,2,1,,,,,1,0,16,0,,,,,,,,,,,,,,,,,121,001,2019_Oct_23_1626,MusicAffectPsychophysiology2019,3.0.5,None,
To what extent did the music make you feel ,ANGRY,30MonoWAV/30MonoH3.wav,2,2,1,7,,,,,1,1,17,6,0,0,0,2,,,2,4.369090624037199,2,1.4858031049952842,2,2.502105252002366,1,1.297172178979963,,,121,001,2019_Oct_23_1626,MusicAffectPsychophysiology2019,3.0.5,None,
To what extent did the music make you feel ,ACTIVE,30MonoWAV/30MonoH3.wav,2,2,1,7,,,,,1,1,17,6,0,1,1,9,,,,,,,,,1,1.2351242100121453,,,121,001,2019_Oct_23_1626,MusicAffectPsychophysiology2019,3.0.5,None,
To what extent did the music make you feel ,GUILTY,30MonoWAV/30MonoH3.wav,2,2,1,7,,,,,1,1,17,6,0,2,2,5,,,,,,,,,1,0.5851633750135079,,,121,001,2019_Oct_23_1626,MusicAffectPsychophysiology2019,3.0.5,None,
To what extent did the music make you feel ,FRUSTRATED,30MonoWAV/30MonoH3.wav,2,2,1,7,,,,,1,1,17,6,0,3,3,3,,,,,,,,,1,0.5183528219931759,,,121,001,2019_Oct_23_1626,MusicAffectPsychophysiology2019,3.0.5,None,
To what extent did the music make you feel ,ALERT,30MonoWAV/30MonoH3.wav,2,2,1,7,,,,,1,1,17,6,0,4,4,8,,,,,,,,,2,1.1668780019972473,,,121,001,2019_Oct_23_1626,MusicAffectPsychophysiology2019,3.0.5,None,
To what extent did the music make you feel ,EXCITED,30MonoWAV/30MonoH3.wav,2,2,1,7,,,,,1,1,17,6,0,5,5,7,,,,,,,,,1,1.0379355929908343,,,121,001,2019_Oct_23_1626,MusicAffectPsychophysiology2019,3.0.5,None,
To what extent did the music make you feel ,SAD,30MonoWAV/30MonoH3.wav,2,2,1,7,,,,,1,1,17,6,0,6,6,0,,,,,,,,,1,0.5628709289594553,,,121,001,2019_Oct_23_1626,MusicAffectPsychophysiology2019,3.0.5,None,
To what extent did the music make you feel ,TENDER,30MonoWAV/30MonoH3.wav,2,2,1,7,,,,,1,1,17,6,0,7,7,10,,,,,,,,,1,1.1027164760162123,,,121,001,2019_Oct_23_1626,MusicAffectPsychophysiology2019,3.0.5,None,
To what extent did the music make you feel ,ASHAMED,30MonoWAV/30MonoH3.wav,2,2,1,7,,,,,1,1,17,6,0,8,8,4,,,,,,,,,1,0.786873098986689,,,121,001,2019_Oct_23_1626,MusicAffectPsychophysiology2019,3.0.5,None,
To what extent did the music make you feel ,SCARED,30MonoWAV/30MonoH3.wav,2,2,1,7,,,,,1,1,17,6,0,9,9,11,,,,,,,,,1,0.5535364330280572,,,121,001,2019_Oct_23_1626,MusicAffectPsychophysiology2019,3.0.5,None,
To what extent did the music make you feel ,HAPPY,30MonoWAV/30MonoH3.wav,2,2,1,7,,,,,1,1,17,6,0,10,10,6,,,,,,,,,1,0.7351916020270437,,,121,001,2019_Oct_23_1626,MusicAffectPsychophysiology2019,3.0.5,None,
To what extent did the music make you feel ,ANXIOUS ,30MonoWAV/30MonoH3.wav,2,2,1,7,,,,,1,1,17,6,0,11,11,1,,,,,,,,,1,1.452504239976406,,,121,001,2019_Oct_23_1626,MusicAffectPsychophysiology2019,3.0.5,None,
,,30MonoWAV/30MonoH3.wav,2,2,1,7,,,,,1,1,17,6,,,,,,,,,,,,,,,,,121,001,2019_Oct_23_1626,MusicAffectPsychophysiology2019,3.0.5,None,
To what extent did the music make you feel ,SAD,30MonoWAV/30MonoH4.wav,2,2,1,8,,,,,1,2,18,7,0,0,0,0,,,4,4.4695614780066535,3,2.1356394439935684,3,1.6198999399784952,1,1.0898705889703706,,,121,001,2019_Oct_23_1626,MusicAffectPsychophysiology2019,3.0.5,None,
To what extent did the music make you feel ,ASHAMED,30MonoWAV/30MonoH4.wav,2,2,1,8,,,,,1,2,18,7,0,1,1,4,,,,,,,,,1,0.7857936680084094,,,121,001,2019_Oct_23_1626,MusicAffectPsychophysiology2019,3.0.5,None,
To what extent did the music make you feel ,FRUSTRATED,30MonoWAV/30MonoH4.wav,2,2,1,8,,,,,1,2,18,7,0,2,2,3,,,,,,,,,1,0.8527484390069731,,,121,001,2019_Oct_23_1626,MusicAffectPsychophysiology2019,3.0.5,None,
To what extent did the music make you feel ,ALERT,30MonoWAV/30MonoH4.wav,2,2,1,8,,,,,1,2,18,7,0,3,3,8,,,,,,,,,3,1.323289479012601,,,121,001,2019_Oct_23_1626,MusicAffectPsychophysiology2019,3.0.5,None,
To what extent did the music make you feel ,GUILTY,30MonoWAV/30MonoH4.wav,2,2,1,8,,,,,1,2,18,7,0,4,4,5,,,,,,,,,1,2.3356411430286244,,,121,001,2019_Oct_23_1626,MusicAffectPsychophysiology2019,3.0.5,None,
To what extent did the music make you feel ,ANGRY,30MonoWAV/30MonoH4.wav,2,2,1,8,,,,,1,2,18,7,0,5,5,2,,,,,,,,,1,1.0702433350379579,,,121,001,2019_Oct_23_1626,MusicAffectPsychophysiology2019,3.0.5,None,
To what extent did the music make you feel ,HAPPY,30MonoWAV/30MonoH4.wav,2,2,1,8,,,,,1,2,18,7,0,6,6,6,,,,,,,,,3,1.7030426600249484,,,121,001,2019_Oct_23_1626,MusicAffectPsychophysiology2019,3.0.5,None,
To what extent did the music make you feel ,EXCITED,30MonoWAV/30MonoH4.wav,2,2,1,8,,,,,1,2,18,7,0,7,7,7,,,,,,,,,3,2.9517038309713826,,,121,001,2019_Oct_23_1626,MusicAffectPsychophysiology2019,3.0.5,None,
To what extent did the music make you feel ,SCARED,30MonoWAV/30MonoH4.wav,2,2,1,8,,,,,1,2,18,7,0,8,8,11,,,,,,,,,1,1.2357963669928722,,,121,001,2019_Oct_23_1626,MusicAffectPsychophysiology2019,3.0.5,None,
To what extent did the music make you feel ,ANXIOUS ,30MonoWAV/30MonoH4.wav,2,2,1,8,,,,,1,2,18,7,0,9,9,1,,,,,,,,,1,0.9024783099885099,,,121,001,2019_Oct_23_1626,MusicAffectPsychophysiology2019,3.0.5,None,
To what extent did the music make you feel ,TENDER,30MonoWAV/30MonoH4.wav,2,2,1,8,,,,,1,2,18,7,0,10,10,10,,,,,,,,,2,1.1361136559862643,,,121,001,2019_Oct_23_1626,MusicAffectPsychophysiology2019,3.0.5,None,
To what extent did the music make you feel ,ACTIVE,30MonoWAV/30MonoH4.wav,2,2,1,8,,,,,1,2,18,7,0,11,11,9,,,,,,,,,4,2.3362775709829293,,,121,001,2019_Oct_23_1626,MusicAffectPsychophysiology2019,3.0.5,None,
,,30MonoWAV/30MonoH4.wav,2,2,1,8,,,,,1,2,18,7,,,,,,,,,,,,,,,,,121,001,2019_Oct_23_1626,MusicAffectPsychophysiology2019,3.0.5,None,
To what extent did the music make you feel ,ALERT,30MonoWAV/30MonoS4.wav,1,1,3,12,,,,,1,3,19,11,0,0,0,8,,,1,3.2858646939857863,1,0.7692840530071408,1,0.9520480150240473,1,1.002547752985265,,,121,001,2019_Oct_23_1626,MusicAffectPsychophysiology2019,3.0.5,None,
To what extent did the music make you feel ,ACTIVE,30MonoWAV/30MonoS4.wav,1,1,3,12,,,,,1,3,19,11,0,1,1,9,,,,,,,,,1,0.8691525059984997,,,121,001,2019_Oct_23_1626,MusicAffectPsychophysiology2019,3.0.5,None,
To what extent did the music make you feel ,HAPPY,30MonoWAV/30MonoS4.wav,1,1,3,12,,,,,1,3,19,11,0,2,2,6,,,,,,,,,1,0.8521083440282382,,,121,001,2019_Oct_23_1626,MusicAffectPsychophysiology2019,3.0.5,None,
To what extent did the music make you feel ,EXCITED,30MonoWAV/30MonoS4.wav,1,1,3,12,,,,,1,3,19,11,0,3,3,7,,,,,,,,,1,0.802771891001612,,,121,001,2019_Oct_23_1626,MusicAffectPsychophysiology2019,3.0.5,None,
To what extent did the music make you feel ,SAD,30MonoWAV/30MonoS4.wav,1,1,3,12,,,,,1,3,19,11,0,4,4,0,,,,,,,,,1,1.100453091028612,,,121,001,2019_Oct_23_1626,MusicAffectPsychophysiology2019,3.0.5,None,
To what extent did the music make you feel ,ASHAMED,30MonoWAV/30MonoS4.wav,1,1,3,12,,,,,1,3,19,11,0,5,5,4,,,,,,,,,1,0.9673443959909491,,,121,001,2019_Oct_23_1626,MusicAffectPsychophysiology2019,3.0.5,None,
To what extent did the music make you feel ,FRUSTRATED,30MonoWAV/30MonoS4.wav,1,1,3,12,,,,,1,3,19,11,0,6,6,3,,,,,,,,,1,1.103155022021383,,,121,001,2019_Oct_23_1626,MusicAffectPsychophysiology2019,3.0.5,None,
To what extent did the music make you feel ,ANXIOUS ,30MonoWAV/30MonoS4.wav,1,1,3,12,,,,,1,3,19,11,0,7,7,1,,,,,,,,,1,1.4194962350302376,,,121,001,2019_Oct_23_1626,MusicAffectPsychophysiology2019,3.0.5,None,
To what extent did the music make you feel ,SCARED,30MonoWAV/30MonoS4.wav,1,1,3,12,,,,,1,3,19,11,0,8,8,11,,,,,,,,,1,0.8178832490229979,,,121,001,2019_Oct_23_1626,MusicAffectPsychophysiology2019,3.0.5,None,
To what extent did the music make you feel ,TENDER,30MonoWAV/30MonoS4.wav,1,1,3,12,,,,,1,3,19,11,0,9,9,10,,,,,,,,,2,1.6335578169673681,,,121,001,2019_Oct_23_1626,MusicAffectPsychophysiology2019,3.0.5,None,
To what extent did the music make you feel ,GUILTY,30MonoWAV/30MonoS4.wav,1,1,3,12,,,,,1,3,19,11,0,10,10,5,,,,,,,,,1,0.8691043480066583,,,121,001,2019_Oct_23_1626,MusicAffectPsychophysiology2019,3.0.5,None,
To what extent did the music make you feel ,ANGRY,30MonoWAV/30MonoS4.wav,1,1,3,12,,,,,1,3,19,11,0,11,11,2,,,,,,,,,1,0.9018722060136497,,,121,001,2019_Oct_23_1626,MusicAffectPsychophysiology2019,3.0.5,None,
,,30MonoWAV/30MonoS4.wav,1,1,3,12,,,,,1,3,19,11,,,,,,,,,,,,,,,,,121,001,2019_Oct_23_1626,MusicAffectPsychophysiology2019,3.0.5,None,
To what extent did the music make you feel ,ACTIVE,30MonoWAV/30MonoF2.wav,1,2,2,2,,,,,1,4,20,1,0,0,0,9,,,1,4.036007442977279,2,1.9698935050400905,2,2.1526830550283194,2,1.7096437679720111,,,121,001,2019_Oct_23_1626,MusicAffectPsychophysiology2019,3.0.5,None,
To what extent did the music make you feel ,ANXIOUS ,30MonoWAV/30MonoF2.wav,1,2,2,2,,,,,1,4,20,1,0,1,1,1,,,,,,,,,2,1.0175290639745072,,,121,001,2019_Oct_23_1626,MusicAffectPsychophysiology2019,3.0.5,None,
To what extent did the music make you feel ,HAPPY,30MonoWAV/30MonoF2.wav,1,2,2,2,,,,,1,4,20,1,0,2,2,6,,,,,,,,,2,1.7363395449938253,,,121,001,2019_Oct_23_1626,MusicAffectPsychophysiology2019,3.0.5,None,
To what extent did the music make you feel ,SCARED,30MonoWAV/30MonoF2.wav,1,2,2,2,,,,,1,4,20,1,0,3,3,11,,,,,,,,,2,1.4857941770460457,,,121,001,2019_Oct_23_1626,MusicAffectPsychophysiology2019,3.0.5,None,
To what extent did the music make you feel ,ALERT,30MonoWAV/30MonoF2.wav,1,2,2,2,,,,,1,4,20,1,0,4,4,8,,,,,,,,,2,1.1862204609788023,,,121,001,2019_Oct_23_1626,MusicAffectPsychophysiology2019,3.0.5,None,
To what extent did the music make you feel ,TENDER,30MonoWAV/30MonoF2.wav,1,2,2,2,,,,,1,4,20,1,0,5,5,10,,,,,,,,,2,1.335083620972,,,121,001,2019_Oct_23_1626,MusicAffectPsychophysiology2019,3.0.5,None,
To what extent did the music make you feel ,GUILTY,30MonoWAV/30MonoF2.wav,1,2,2,2,,,,,1,4,20,1,0,6,6,5,,,,,,,,,1,1.0023684020270593,,,121,001,2019_Oct_23_1626,MusicAffectPsychophysiology2019,3.0.5,None,
To what extent did the music make you feel ,SAD,30MonoWAV/30MonoF2.wav,1,2,2,2,,,,,1,4,20,1,0,7,7,0,,,,,,,,,1,0.8365547709981911,,,121,001,2019_Oct_23_1626,MusicAffectPsychophysiology2019,3.0.5,None,
To what extent did the music make you feel ,ASHAMED,30MonoWAV/30MonoF2.wav,1,2,2,2,,,,,1,4,20,1,0,8,8,4,,,,,,,,,1,0.7872756500146352,,,121,001,2019_Oct_23_1626,MusicAffectPsychophysiology2019,3.0.5,None,
To what extent did the music make you feel ,FRUSTRATED,30MonoWAV/30MonoF2.wav,1,2,2,2,,,,,1,4,20,1,0,9,9,3,,,,,,,,,1,0.8087796269683167,,,121,001,2019_Oct_23_1626,MusicAffectPsychophysiology2019,3.0.5,None,
To what extent did the music make you feel ,ANGRY,30MonoWAV/30MonoF2.wav,1,2,2,2,,,,,1,4,20,1,0,10,10,2,,,,,,,,,1,0.936005164985545,,,121,001,2019_Oct_23_1626,MusicAffectPsychophysiology2019,3.0.5,None,
To what extent did the music make you feel ,EXCITED,30MonoWAV/30MonoF2.wav,1,2,2,2,,,,,1,4,20,1,0,11,11,7,,,,,,,,,1,1.15337830997305,,,121,001,2019_Oct_23_1626,MusicAffectPsychophysiology2019,3.0.5,None,
,,30MonoWAV/30MonoF2.wav,1,2,2,2,,,,,1,4,20,1,,,,,,,,,,,,,,,,,121,001,2019_Oct_23_1626,MusicAffectPsychophysiology2019,3.0.5,None,
To what extent did the music make you feel ,ALERT,30MonoWAV/30MonoT4.wav,2,1,4,16,,,,,1,5,21,15,0,0,0,8,,,2,4.485612546966877,3,1.7014222499565221,4,1.454371995991096,2,2.869156356959138,,,121,001,2019_Oct_23_1626,MusicAffectPsychophysiology2019,3.0.5,None,
To what extent did the music make you feel ,SCARED,30MonoWAV/30MonoT4.wav,2,1,4,16,,,,,1,5,21,15,0,1,1,11,,,,,,,,,1,0.9049669569940306,,,121,001,2019_Oct_23_1626,MusicAffectPsychophysiology2019,3.0.5,None,
To what extent did the music make you feel ,SAD,30MonoWAV/30MonoT4.wav,2,1,4,16,,,,,1,5,21,15,0,2,2,0,,,,,,,,,1,1.00219778198516,,,121,001,2019_Oct_23_1626,MusicAffectPsychophysiology2019,3.0.5,None,
To what extent did the music make you feel ,ANXIOUS ,30MonoWAV/30MonoT4.wav,2,1,4,16,,,,,1,5,21,15,0,3,3,1,,,,,,,,,1,0.7526572779752314,,,121,001,2019_Oct_23_1626,MusicAffectPsychophysiology2019,3.0.5,None,
To what extent did the music make you feel ,TENDER,30MonoWAV/30MonoT4.wav,2,1,4,16,,,,,1,5,21,15,0,4,4,10,,,,,,,,,2,1.0521259450470097,,,121,001,2019_Oct_23_1626,MusicAffectPsychophysiology2019,3.0.5,None,
To what extent did the music make you feel ,HAPPY,30MonoWAV/30MonoT4.wav,2,1,4,16,,,,,1,5,21,15,0,5,5,6,,,,,,,,,3,2.0182820769841783,,,121,001,2019_Oct_23_1626,MusicAffectPsychophysiology2019,3.0.5,None,
To what extent did the music make you feel ,FRUSTRATED,30MonoWAV/30MonoT4.wav,2,1,4,16,,,,,1,5,21,15,0,6,6,3,,,,,,,,,1,1.0690637939842418,,,121,001,2019_Oct_23_1626,MusicAffectPsychophysiology2019,3.0.5,None,
To what extent did the music make you feel ,GUILTY,30MonoWAV/30MonoT4.wav,2,1,4,16,,,,,1,5,21,15,0,7,7,5,,,,,,,,,1,0.6849998169927858,,,121,001,2019_Oct_23_1626,MusicAffectPsychophysiology2019,3.0.5,None,
To what extent did the music make you feel ,EXCITED,30MonoWAV/30MonoT4.wav,2,1,4,16,,,,,1,5,21,15,0,8,8,7,,,,,,,,,1,1.134968843020033,,,121,001,2019_Oct_23_1626,MusicAffectPsychophysiology2019,3.0.5,None,
To what extent did the music make you feel ,ACTIVE,30MonoWAV/30MonoT4.wav,2,1,4,16,,,,,1,5,21,15,0,9,9,9,,,,,,,,,2,1.4686948899761774,,,121,001,2019_Oct_23_1626,MusicAffectPsychophysiology2019,3.0.5,None,
To what extent did the music make you feel ,ANGRY,30MonoWAV/30MonoT4.wav,2,1,4,16,,,,,1,5,21,15,0,10,10,2,,,,,,,,,1,0.6365134379593655,,,121,001,2019_Oct_23_1626,MusicAffectPsychophysiology2019,3.0.5,None,
To what extent did the music make you feel ,ASHAMED,30MonoWAV/30MonoT4.wav,2,1,4,16,,,,,1,5,21,15,0,11,11,4,,,,,,,,,1,0.9360941509949043,,,121,001,2019_Oct_23_1626,MusicAffectPsychophysiology2019,3.0.5,None,
,,30MonoWAV/30MonoT4.wav,2,1,4,16,,,,,1,5,21,15,,,,,,,,,,,,,,,,,121,001,2019_Oct_23_1626,MusicAffectPsychophysiology2019,3.0.5,None,
To what extent did the music make you feel ,FRUSTRATED,30MonoWAV/30MonoT2.wav,2,1,4,14,,,,,1,6,22,13,0,0,0,3,,,2,5.785812064015772,3,1.3690249199862592,3,1.2688626699964516,1,1.20374307903694,,,121,001,2019_Oct_23_1626,MusicAffectPsychophysiology2019,3.0.5,None,
To what extent did the music make you feel ,GUILTY,30MonoWAV/30MonoT2.wav,2,1,4,14,,,,,1,6,22,13,0,1,1,5,,,,,,,,,1,0.5022840599995106,,,121,001,2019_Oct_23_1626,MusicAffectPsychophysiology2019,3.0.5,None,
To what extent did the music make you feel ,ALERT,30MonoWAV/30MonoT2.wav,2,1,4,14,,,,,1,6,22,13,0,2,2,8,,,,,,,,,2,2.6828375839977525,,,121,001,2019_Oct_23_1626,MusicAffectPsychophysiology2019,3.0.5,None,
To what extent did the music make you feel ,ACTIVE,30MonoWAV/30MonoT2.wav,2,1,4,14,,,,,1,6,22,13,0,3,3,9,,,,,,,,,1,1.4033146260189824,,,121,001,2019_Oct_23_1626,MusicAffectPsychophysiology2019,3.0.5,None,
To what extent did the music make you feel ,ANXIOUS ,30MonoWAV/30MonoT2.wav,2,1,4,14,,,,,1,6,22,13,0,4,4,1,,,,,,,,,1,0.6510586699587293,,,121,001,2019_Oct_23_1626,MusicAffectPsychophysiology2019,3.0.5,None,
To what extent did the music make you feel ,ASHAMED,30MonoWAV/30MonoT2.wav,2,1,4,14,,,,,1,6,22,13,0,5,5,4,,,,,,,,,1,0.5028383649769239,,,121,001,2019_Oct_23_1626,MusicAffectPsychophysiology2019,3.0.5,None,
To what extent did the music make you feel ,EXCITED,30MonoWAV/30MonoT2.wav,2,1,4,14,,,,,1,6,22,13,0,6,6,7,,,,,,,,,1,1.0853625850286335,,,121,001,2019_Oct_23_1626,MusicAffectPsychophysiology2019,3.0.5,None,
To what extent did the music make you feel ,ANGRY,30MonoWAV/30MonoT2.wav,2,1,4,14,,,,,1,6,22,13,0,7,7,2,,,,,,,,,1,0.5695254160091281,,,121,001,2019_Oct_23_1626,MusicAffectPsychophysiology2019,3.0.5,None,
To what extent did the music make you feel ,SAD,30MonoWAV/30MonoT2.wav,2,1,4,14,,,,,1,6,22,13,0,8,8,0,,,,,,,,,1,0.4533113270299509,,,121,001,2019_Oct_23_1626,MusicAffectPsychophysiology2019,3.0.5,None,
To what extent did the music make you feel ,TENDER,30MonoWAV/30MonoT2.wav,2,1,4,14,,,,,1,6,22,13,0,9,9,10,,,,,,,,,2,0.9357473679701798,,,121,001,2019_Oct_23_1626,MusicAffectPsychophysiology2019,3.0.5,None,
To what extent did the music make you feel ,HAPPY,30MonoWAV/30MonoT2.wav,2,1,4,14,,,,,1,6,22,13,0,10,10,6,,,,,,,,,3,1.0034777249675244,,,121,001,2019_Oct_23_1626,MusicAffectPsychophysiology2019,3.0.5,None,
To what extent did the music make you feel ,SCARED,30MonoWAV/30MonoT2.wav,2,1,4,14,,,,,1,6,22,13,0,11,11,11,,,,,,,,,1,0.7292599759530276,,,121,001,2019_Oct_23_1626,MusicAffectPsychophysiology2019,3.0.5,None,
,,30MonoWAV/30MonoT2.wav,2,1,4,14,,,,,1,6,22,13,,,,,,,,,,,,,,,,,121,001,2019_Oct_23_1626,MusicAffectPsychophysiology2019,3.0.5,None,
To what extent did the music make you feel ,ASHAMED,30MonoWAV/30MonoS1.wav,1,1,3,9,,,,,1,7,23,8,0,0,0,4,,,1,3.485442922974471,1,1.803143580968026,1,1.1186976400204003,1,1.055852599965874,,,121,001,2019_Oct_23_1626,MusicAffectPsychophysiology2019,3.0.5,None,
To what extent did the music make you feel ,GUILTY,30MonoWAV/30MonoS1.wav,1,1,3,9,,,,,1,7,23,8,0,1,1,5,,,,,,,,,1,0.8358383070444688,,,121,001,2019_Oct_23_1626,MusicAffectPsychophysiology2019,3.0.5,None,
To what extent did the music make you feel ,SCARED,30MonoWAV/30MonoS1.wav,1,1,3,9,,,,,1,7,23,8,0,2,2,11,,,,,,,,,1,0.6022918669623323,,,121,001,2019_Oct_23_1626,MusicAffectPsychophysiology2019,3.0.5,None,
To what extent did the music make you feel ,FRUSTRATED,30MonoWAV/30MonoS1.wav,1,1,3,9,,,,,1,7,23,8,0,3,3,3,,,,,,,,,3,1.7228616480133496,,,121,001,2019_Oct_23_1626,MusicAffectPsychophysiology2019,3.0.5,None,
To what extent did the music make you feel ,HAPPY,30MonoWAV/30MonoS1.wav,1,1,3,9,,,,,1,7,23,8,0,4,4,6,,,,,,,,,1,1.0866986350156367,,,121,001,2019_Oct_23_1626,MusicAffectPsychophysiology2019,3.0.5,None,
To what extent did the music make you feel ,SAD,30MonoWAV/30MonoS1.wav,1,1,3,9,,,,,1,7,23,8,0,5,5,0,,,,,,,,,1,1.3691617050208151,,,121,001,2019_Oct_23_1626,MusicAffectPsychophysiology2019,3.0.5,None,
To what extent did the music make you feel ,ALERT,30MonoWAV/30MonoS1.wav,1,1,3,9,,,,,1,7,23,8,0,6,6,8,,,,,,,,,1,1.1373707610182464,,,121,001,2019_Oct_23_1626,MusicAffectPsychophysiology2019,3.0.5,None,
To what extent did the music make you feel ,ACTIVE,30MonoWAV/30MonoS1.wav,1,1,3,9,,,,,1,7,23,8,0,7,7,9,,,,,,,,,1,0.820968491025269,,,121,001,2019_Oct_23_1626,MusicAffectPsychophysiology2019,3.0.5,None,
To what extent did the music make you feel ,ANGRY,30MonoWAV/30MonoS1.wav,1,1,3,9,,,,,1,7,23,8,0,8,8,2,,,,,,,,,1,0.9013347110012546,,,121,001,2019_Oct_23_1626,MusicAffectPsychophysiology2019,3.0.5,None,
To what extent did the music make you feel ,ANXIOUS ,30MonoWAV/30MonoS1.wav,1,1,3,9,,,,,1,7,23,8,0,9,9,1,,,,,,,,,1,1.0524971510167234,,,121,001,2019_Oct_23_1626,MusicAffectPsychophysiology2019,3.0.5,None,
To what extent did the music make you feel ,EXCITED,30MonoWAV/30MonoS1.wav,1,1,3,9,,,,,1,7,23,8,0,10,10,7,,,,,,,,,1,0.7195743430056609,,,121,001,2019_Oct_23_1626,MusicAffectPsychophysiology2019,3.0.5,None,
To what extent did the music make you feel ,TENDER,30MonoWAV/30MonoS1.wav,1,1,3,9,,,,,1,7,23,8,0,11,11,10,,,,,,,,,1,1.5510857969638892,,,121,001,2019_Oct_23_1626,MusicAffectPsychophysiology2019,3.0.5,None,
,,30MonoWAV/30MonoS1.wav,1,1,3,9,,,,,1,7,23,8,,,,,,,,,,,,,,,,,121,001,2019_Oct_23_1626,MusicAffectPsychophysiology2019,3.0.5,None,
To what extent did the music make you feel ,SAD,30MonoWAV/30MonoH2.wav,2,2,1,6,,,,,1,8,24,5,0,0,0,0,,,2,11.41849190701032,3,1.3684968320303597,3,1.735309440002311,1,1.149202000000514,,,121,001,2019_Oct_23_1626,MusicAffectPsychophysiology2019,3.0.5,None,
To what extent did the music make you feel ,HAPPY,30MonoWAV/30MonoH2.wav,2,2,1,6,,,,,1,8,24,5,0,1,1,6,,,,,,,,,2,2.1357830979977734,,,121,001,2019_Oct_23_1626,MusicAffectPsychophysiology2019,3.0.5,None,
To what extent did the music make you feel ,TENDER,30MonoWAV/30MonoH2.wav,2,2,1,6,,,,,1,8,24,5,0,2,2,10,,,,,,,,,2,0.8013715579872951,,,121,001,2019_Oct_23_1626,MusicAffectPsychophysiology2019,3.0.5,None,
To what extent did the music make you feel ,ANXIOUS ,30MonoWAV/30MonoH2.wav,2,2,1,6,,,,,1,8,24,5,0,3,3,1,,,,,,,,,1,0.952278385986574,,,121,001,2019_Oct_23_1626,MusicAffectPsychophysiology2019,3.0.5,None,
To what extent did the music make you feel ,ACTIVE,30MonoWAV/30MonoH2.wav,2,2,1,6,,,,,1,8,24,5,0,4,4,9,,,,,,,,,2,1.3181595109635964,,,121,001,2019_Oct_23_1626,MusicAffectPsychophysiology2019,3.0.5,None,
To what extent did the music make you feel ,ANGRY,30MonoWAV/30MonoH2.wav,2,2,1,6,,,,,1,8,24,5,0,5,5,2,,,,,,,,,1,1.0515803699963726,,,121,001,2019_Oct_23_1626,MusicAffectPsychophysiology2019,3.0.5,None,
To what extent did the music make you feel ,ASHAMED,30MonoWAV/30MonoH2.wav,2,2,1,6,,,,,1,8,24,5,0,6,6,4,,,,,,,,,1,0.8202742409775965,,,121,001,2019_Oct_23_1626,MusicAffectPsychophysiology2019,3.0.5,None,
To what extent did the music make you feel ,SCARED,30MonoWAV/30MonoH2.wav,2,2,1,6,,,,,1,8,24,5,0,7,7,11,,,,,,,,,1,0.7206791089847684,,,121,001,2019_Oct_23_1626,MusicAffectPsychophysiology2019,3.0.5,None,
To what extent did the music make you feel ,ALERT,30MonoWAV/30MonoH2.wav,2,2,1,6,,,,,1,8,24,5,0,8,8,8,,,,,,,,,2,1.1002390090143308,,,121,001,2019_Oct_23_1626,MusicAffectPsychophysiology2019,3.0.5,None,
To what extent did the music make you feel ,EXCITED,30MonoWAV/30MonoH2.wav,2,2,1,6,,,,,1,8,24,5,0,9,9,7,,,,,,,,,2,2.217680007976014,,,121,001,2019_Oct_23_1626,MusicAffectPsychophysiology2019,3.0.5,None,
To what extent did the music make you feel ,FRUSTRATED,30MonoWAV/30MonoH2.wav,2,2,1,6,,,,,1,8,24,5,0,10,10,3,,,,,,,,,1,0.9025457259849645,,,121,001,2019_Oct_23_1626,MusicAffectPsychophysiology2019,3.0.5,None,
To what extent did the music make you feel ,GUILTY,30MonoWAV/30MonoH2.wav,2,2,1,6,,,,,1,8,24,5,0,11,11,5,,,,,,,,,1,1.0356893650023267,,,121,001,2019_Oct_23_1626,MusicAffectPsychophysiology2019,3.0.5,None,
,,30MonoWAV/30MonoH2.wav,2,2,1,6,,,,,1,8,24,5,,,,,,,,,,,,,,,,,121,001,2019_Oct_23_1626,MusicAffectPsychophysiology2019,3.0.5,None,
To what extent did the music make you feel ,ANXIOUS ,30MonoWAV/30MonoT1.wav,2,1,4,13,,,,,1,9,25,12,0,0,0,1,,,2,3.851482836995274,4,3.136796375969425,3,1.4519981609773822,1,2.5759060019627213,,,121,001,2019_Oct_23_1626,MusicAffectPsychophysiology2019,3.0.5,None,
To what extent did the music make you feel ,ACTIVE,30MonoWAV/30MonoT1.wav,2,1,4,13,,,,,1,9,25,12,0,1,1,9,,,,,,,,,2,2.135166340973228,,,121,001,2019_Oct_23_1626,MusicAffectPsychophysiology2019,3.0.5,None,
To what extent did the music make you feel ,FRUSTRATED,30MonoWAV/30MonoT1.wav,2,1,4,13,,,,,1,9,25,12,0,2,2,3,,,,,,,,,1,0.5927555720554665,,,121,001,2019_Oct_23_1626,MusicAffectPsychophysiology2019,3.0.5,None,
To what extent did the music make you feel ,ANGRY,30MonoWAV/30MonoT1.wav,2,1,4,13,,,,,1,9,25,12,0,3,3,2,,,,,,,,,1,0.5032379080075771,,,121,001,2019_Oct_23_1626,MusicAffectPsychophysiology2019,3.0.5,None,
To what extent did the music make you feel ,ALERT,30MonoWAV/30MonoT1.wav,2,1,4,13,,,,,1,9,25,12,0,4,4,8,,,,,,,,,2,0.9499359960318543,,,121,001,2019_Oct_23_1626,MusicAffectPsychophysiology2019,3.0.5,None,
To what extent did the music make you feel ,EXCITED,30MonoWAV/30MonoT1.wav,2,1,4,13,,,,,1,9,25,12,0,5,5,7,,,,,,,,,2,1.4698455339530483,,,121,001,2019_Oct_23_1626,MusicAffectPsychophysiology2019,3.0.5,None,
To what extent did the music make you feel ,SCARED,30MonoWAV/30MonoT1.wav,2,1,4,13,,,,,1,9,25,12,0,6,6,11,,,,,,,,,1,0.8250021459534764,,,121,001,2019_Oct_23_1626,MusicAffectPsychophysiology2019,3.0.5,None,
To what extent did the music make you feel ,SAD,30MonoWAV/30MonoT1.wav,2,1,4,13,,,,,1,9,25,12,0,7,7,0,,,,,,,,,1,0.5193472449900582,,,121,001,2019_Oct_23_1626,MusicAffectPsychophysiology2019,3.0.5,None,
To what extent did the music make you feel ,TENDER,30MonoWAV/30MonoT1.wav,2,1,4,13,,,,,1,9,25,12,0,8,8,10,,,,,,,,,2,0.8864958800259046,,,121,001,2019_Oct_23_1626,MusicAffectPsychophysiology2019,3.0.5,None,
To what extent did the music make you feel ,ASHAMED,30MonoWAV/30MonoT1.wav,2,1,4,13,,,,,1,9,25,12,0,9,9,4,,,,,,,,,1,0.5856109500164166,,,121,001,2019_Oct_23_1626,MusicAffectPsychophysiology2019,3.0.5,None,
To what extent did the music make you feel ,GUILTY,30MonoWAV/30MonoT1.wav,2,1,4,13,,,,,1,9,25,12,0,10,10,5,,,,,,,,,1,1.3028222770080902,,,121,001,2019_Oct_23_1626,MusicAffectPsychophysiology2019,3.0.5,None,
To what extent did the music make you feel ,HAPPY,30MonoWAV/30MonoT1.wav,2,1,4,13,,,,,1,9,25,12,0,11,11,6,,,,,,,,,2,1.5856377970194444,,,121,001,2019_Oct_23_1626,MusicAffectPsychophysiology2019,3.0.5,None,
,,30MonoWAV/30MonoT1.wav,2,1,4,13,,,,,1,9,25,12,,,,,,,,,,,,,,,,,121,001,2019_Oct_23_1626,MusicAffectPsychophysiology2019,3.0.5,None,
To what extent did the music make you feel ,EXCITED,30MonoWAV/30MonoF3.wav,1,2,2,3,,,,,1,10,26,2,0,0,0,7,,,3,2.7026246580062434,4,2.8856093480135314,4,1.5868134130141698,3,1.5030560330487788,,,121,001,2019_Oct_23_1626,MusicAffectPsychophysiology2019,3.0.5,None,
To what extent did the music make you feel ,HAPPY,30MonoWAV/30MonoF3.wav,1,2,2,3,,,,,1,10,26,2,0,1,1,6,,,,,,,,,3,1.4498645539861172,,,121,001,2019_Oct_23_1626,MusicAffectPsychophysiology2019,3.0.5,None,
To what extent did the music make you feel ,GUILTY,30MonoWAV/30MonoF3.wav,1,2,2,3,,,,,1,10,26,2,0,2,2,5,,,,,,,,,1,1.0688884619739838,,,121,001,2019_Oct_23_1626,MusicAffectPsychophysiology2019,3.0.5,None,
To what extent did the music make you feel ,ANXIOUS ,30MonoWAV/30MonoF3.wav,1,2,2,3,,,,,1,10,26,2,0,3,3,1,,,,,,,,,1,0.6355059579946101,,,121,001,2019_Oct_23_1626,MusicAffectPsychophysiology2019,3.0.5,None,
To what extent did the music make you feel ,ACTIVE,30MonoWAV/30MonoF3.wav,1,2,2,3,,,,,1,10,26,2,0,4,4,9,,,,,,,,,4,2.718857316998765,,,121,001,2019_Oct_23_1626,MusicAffectPsychophysiology2019,3.0.5,None,
To what extent did the music make you feel ,ASHAMED,30MonoWAV/30MonoF3.wav,1,2,2,3,,,,,1,10,26,2,0,5,5,4,,,,,,,,,1,0.9021603320143186,,,121,001,2019_Oct_23_1626,MusicAffectPsychophysiology2019,3.0.5,None,
To what extent did the music make you feel ,ANGRY,30MonoWAV/30MonoF3.wav,1,2,2,3,,,,,1,10,26,2,0,6,6,2,,,,,,,,,1,0.585431409010198,,,121,001,2019_Oct_23_1626,MusicAffectPsychophysiology2019,3.0.5,None,
To what extent did the music make you feel ,FRUSTRATED,30MonoWAV/30MonoF3.wav,1,2,2,3,,,,,1,10,26,2,0,7,7,3,,,,,,,,,1,0.50358124403283,,,121,001,2019_Oct_23_1626,MusicAffectPsychophysiology2019,3.0.5,None,
To what extent did the music make you feel ,TENDER,30MonoWAV/30MonoF3.wav,1,2,2,3,,,,,1,10,26,2,0,8,8,10,,,,,,,,,3,0.8196417560102418,,,121,001,2019_Oct_23_1626,MusicAffectPsychophysiology2019,3.0.5,None,
To what extent did the music make you feel ,SCARED,30MonoWAV/30MonoF3.wav,1,2,2,3,,,,,1,10,26,2,0,9,9,11,,,,,,,,,1,3.185619393014349,,,121,001,2019_Oct_23_1626,MusicAffectPsychophysiology2019,3.0.5,None,
To what extent did the music make you feel ,ALERT,30MonoWAV/30MonoF3.wav,1,2,2,3,,,,,1,10,26,2,0,10,10,8,,,,,,,,,3,1.2191434130072594,,,121,001,2019_Oct_23_1626,MusicAffectPsychophysiology2019,3.0.5,None,
To what extent did the music make you feel ,SAD,30MonoWAV/30MonoF3.wav,1,2,2,3,,,,,1,10,26,2,0,11,11,0,,,,,,,,,1,1.0688772079884075,,,121,001,2019_Oct_23_1626,MusicAffectPsychophysiology2019,3.0.5,None,
,,30MonoWAV/30MonoF3.wav,1,2,2,3,,,,,1,10,26,2,,,,,,,,,,,,,,,,,121,001,2019_Oct_23_1626,MusicAffectPsychophysiology2019,3.0.5,None,
To what extent did the music make you feel ,ACTIVE,30MonoWAV/30MonoT3.wav,2,1,4,15,,,,,1,11,27,14,0,0,0,9,,,1,2.452478923019953,3,2.0357441220548935,3,1.0518134069861844,1,1.1293685309938155,,,121,001,2019_Oct_23_1626,MusicAffectPsychophysiology2019,3.0.5,None,
To what extent did the music make you feel ,ALERT,30MonoWAV/30MonoT3.wav,2,1,4,15,,,,,1,11,27,14,0,1,1,8,,,,,,,,,1,0.7854038939694874,,,121,001,2019_Oct_23_1626,MusicAffectPsychophysiology2019,3.0.5,None,
To what extent did the music make you feel ,GUILTY,30MonoWAV/30MonoT3.wav,2,1,4,15,,,,,1,11,27,14,0,2,2,5,,,,,,,,,1,0.5195449909660965,,,121,001,2019_Oct_23_1626,MusicAffectPsychophysiology2019,3.0.5,None,
To what extent did the music make you feel ,FRUSTRATED,30MonoWAV/30MonoT3.wav,2,1,4,15,,,,,1,11,27,14,0,3,3,3,,,,,,,,,1,0.45225311699323356,,,121,001,2019_Oct_23_1626,MusicAffectPsychophysiology2019,3.0.5,None,
To what extent did the music make you feel ,SAD,30MonoWAV/30MonoT3.wav,2,1,4,15,,,,,1,11,27,14,0,4,4,0,,,,,,,,,1,0.4364888469572179,,,121,001,2019_Oct_23_1626,MusicAffectPsychophysiology2019,3.0.5,None,
To what extent did the music make you feel ,ASHAMED,30MonoWAV/30MonoT3.wav,2,1,4,15,,,,,1,11,27,14,0,5,5,4,,,,,,,,,1,0.4190352449659258,,,121,001,2019_Oct_23_1626,MusicAffectPsychophysiology2019,3.0.5,None,
To what extent did the music make you feel ,ANXIOUS ,30MonoWAV/30MonoT3.wav,2,1,4,15,,,,,1,11,27,14,0,6,6,1,,,,,,,,,1,0.5700934430351481,,,121,001,2019_Oct_23_1626,MusicAffectPsychophysiology2019,3.0.5,None,
To what extent did the music make you feel ,HAPPY,30MonoWAV/30MonoT3.wav,2,1,4,15,,,,,1,11,27,14,0,7,7,6,,,,,,,,,2,1.10249036696041,,,121,001,2019_Oct_23_1626,MusicAffectPsychophysiology2019,3.0.5,None,
To what extent did the music make you feel ,ANGRY,30MonoWAV/30MonoT3.wav,2,1,4,15,,,,,1,11,27,14,0,8,8,2,,,,,,,,,1,0.5188072739983909,,,121,001,2019_Oct_23_1626,MusicAffectPsychophysiology2019,3.0.5,None,
To what extent did the music make you feel ,EXCITED,30MonoWAV/30MonoT3.wav,2,1,4,15,,,,,1,11,27,14,0,9,9,7,,,,,,,,,1,1.103227571991738,,,121,001,2019_Oct_23_1626,MusicAffectPsychophysiology2019,3.0.5,None,
To what extent did the music make you feel ,TENDER,30MonoWAV/30MonoT3.wav,2,1,4,15,,,,,1,11,27,14,0,10,10,10,,,,,,,,,2,0.8752343860105611,,,121,001,2019_Oct_23_1626,MusicAffectPsychophysiology2019,3.0.5,None,
To what extent did the music make you feel ,SCARED,30MonoWAV/30MonoT3.wav,2,1,4,15,,,,,1,11,27,14,0,11,11,11,,,,,,,,,1,0.9355151039781049,,,121,001,2019_Oct_23_1626,MusicAffectPsychophysiology2019,3.0.5,None,
,,30MonoWAV/30MonoT3.wav,2,1,4,15,,,,,1,11,27,14,,,,,,,,,,,,,,,,,121,001,2019_Oct_23_1626,MusicAffectPsychophysiology2019,3.0.5,None,
To what extent did the music make you feel ,HAPPY,30MonoWAV/30MonoH1.wav,2,2,1,5,,,,,1,12,28,4,0,0,0,6,,,4,3.3687083609984256,4,1.869675685011316,3,1.4693086479674093,3,1.738322513003368,,,121,001,2019_Oct_23_1626,MusicAffectPsychophysiology2019,3.0.5,None,
To what extent did the music make you feel ,ANGRY,30MonoWAV/30MonoH1.wav,2,2,1,5,,,,,1,12,28,4,0,1,1,2,,,,,,,,,1,1.1694594849832356,,,121,001,2019_Oct_23_1626,MusicAffectPsychophysiology2019,3.0.5,None,
To what extent did the music make you feel ,ANXIOUS ,30MonoWAV/30MonoH1.wav,2,2,1,5,,,,,1,12,28,4,0,2,2,1,,,,,,,,,1,0.6859198489692062,,,121,001,2019_Oct_23_1626,MusicAffectPsychophysiology2019,3.0.5,None,
To what extent did the music make you feel ,ACTIVE,30MonoWAV/30MonoH1.wav,2,2,1,5,,,,,1,12,28,4,0,3,3,9,,,,,,,,,4,1.4694275159854442,,,121,001,2019_Oct_23_1626,MusicAffectPsychophysiology2019,3.0.5,None,
To what extent did the music make you feel ,TENDER,30MonoWAV/30MonoH1.wav,2,2,1,5,,,,,1,12,28,4,0,4,4,10,,,,,,,,,2,1.1345878770225681,,,121,001,2019_Oct_23_1626,MusicAffectPsychophysiology2019,3.0.5,None,
To what extent did the music make you feel ,SCARED,30MonoWAV/30MonoH1.wav,2,2,1,5,,,,,1,12,28,4,0,5,5,11,,,,,,,,,1,0.6362008910509758,,,121,001,2019_Oct_23_1626,MusicAffectPsychophysiology2019,3.0.5,None,
To what extent did the music make you feel ,FRUSTRATED,30MonoWAV/30MonoH1.wav,2,2,1,5,,,,,1,12,28,4,0,6,6,3,,,,,,,,,1,0.6498768900055438,,,121,001,2019_Oct_23_1626,MusicAffectPsychophysiology2019,3.0.5,None,
To what extent did the music make you feel ,GUILTY,30MonoWAV/30MonoH1.wav,2,2,1,5,,,,,1,12,28,4,0,7,7,5,,,,,,,,,1,0.5029720589518547,,,121,001,2019_Oct_23_1626,MusicAffectPsychophysiology2019,3.0.5,None,
To what extent did the music make you feel ,SAD,30MonoWAV/30MonoH1.wav,2,2,1,5,,,,,1,12,28,4,0,8,8,0,,,,,,,,,1,0.4671672059921548,,,121,001,2019_Oct_23_1626,MusicAffectPsychophysiology2019,3.0.5,None,
To what extent did the music make you feel ,EXCITED,30MonoWAV/30MonoH1.wav,2,2,1,5,,,,,1,12,28,4,0,9,9,7,,,,,,,,,4,1.5195253189885989,,,121,001,2019_Oct_23_1626,MusicAffectPsychophysiology2019,3.0.5,None,
To what extent did the music make you feel ,ALERT,30MonoWAV/30MonoH1.wav,2,2,1,5,,,,,1,12,28,4,0,10,10,8,,,,,,,,,3,1.4184240780305117,,,121,001,2019_Oct_23_1626,MusicAffectPsychophysiology2019,3.0.5,None,
To what extent did the music make you feel ,ASHAMED,30MonoWAV/30MonoH1.wav,2,2,1,5,,,,,1,12,28,4,0,11,11,4,,,,,,,,,1,0.5189771539880894,,,121,001,2019_Oct_23_1626,MusicAffectPsychophysiology2019,3.0.5,None,
,,30MonoWAV/30MonoH1.wav,2,2,1,5,,,,,1,12,28,4,,,,,,,,,,,,,,,,,121,001,2019_Oct_23_1626,MusicAffectPsychophysiology2019,3.0.5,None,
To what extent did the music make you feel ,TENDER,30MonoWAV/30MonoS2.wav,1,1,3,10,,,,,1,13,29,9,0,0,0,10,,,1,2.9692898339708336,1,0.751966101990547,1,0.8687760810134932,2,1.5990194380283356,,,121,001,2019_Oct_23_1626,MusicAffectPsychophysiology2019,3.0.5,None,
To what extent did the music make you feel ,ANXIOUS ,30MonoWAV/30MonoS2.wav,1,1,3,10,,,,,1,13,29,9,0,1,1,1,,,,,,,,,1,0.9335633409791626,,,121,001,2019_Oct_23_1626,MusicAffectPsychophysiology2019,3.0.5,None,
To what extent did the music make you feel ,FRUSTRATED,30MonoWAV/30MonoS2.wav,1,1,3,10,,,,,1,13,29,9,0,2,2,3,,,,,,,,,1,0.8190471589914523,,,121,001,2019_Oct_23_1626,MusicAffectPsychophysiology2019,3.0.5,None,
To what extent did the music make you feel ,ACTIVE,30MonoWAV/30MonoS2.wav,1,1,3,10,,,,,1,13,29,9,0,3,3,9,,,,,,,,,1,0.9013165479991585,,,121,001,2019_Oct_23_1626,MusicAffectPsychophysiology2019,3.0.5,None,
To what extent did the music make you feel ,GUILTY,30MonoWAV/30MonoS2.wav,1,1,3,10,,,,,1,13,29,9,0,4,4,5,,,,,,,,,1,0.8022404260118492,,,121,001,2019_Oct_23_1626,MusicAffectPsychophysiology2019,3.0.5,None,
To what extent did the music make you feel ,EXCITED,30MonoWAV/30MonoS2.wav,1,1,3,10,,,,,1,13,29,9,0,5,5,7,,,,,,,,,1,0.8693983050179668,,,121,001,2019_Oct_23_1626,MusicAffectPsychophysiology2019,3.0.5,None,
To what extent did the music make you feel ,ALERT,30MonoWAV/30MonoS2.wav,1,1,3,10,,,,,1,13,29,9,0,6,6,8,,,,,,,,,1,0.9193706730147824,,,121,001,2019_Oct_23_1626,MusicAffectPsychophysiology2019,3.0.5,None,
To what extent did the music make you feel ,HAPPY,30MonoWAV/30MonoS2.wav,1,1,3,10,,,,,1,13,29,9,0,7,7,6,,,,,,,,,1,0.9027907139970921,,,121,001,2019_Oct_23_1626,MusicAffectPsychophysiology2019,3.0.5,None,
To what extent did the music make you feel ,ASHAMED,30MonoWAV/30MonoS2.wav,1,1,3,10,,,,,1,13,29,9,0,8,8,4,,,,,,,,,1,0.9196587179903872,,,121,001,2019_Oct_23_1626,MusicAffectPsychophysiology2019,3.0.5,None,
To what extent did the music make you feel ,SCARED,30MonoWAV/30MonoS2.wav,1,1,3,10,,,,,1,13,29,9,0,9,9,11,,,,,,,,,1,0.902355047990568,,,121,001,2019_Oct_23_1626,MusicAffectPsychophysiology2019,3.0.5,None,
To what extent did the music make you feel ,SAD,30MonoWAV/30MonoS2.wav,1,1,3,10,,,,,1,13,29,9,0,10,10,0,,,,,,,,,1,0.9147275160066783,,,121,001,2019_Oct_23_1626,MusicAffectPsychophysiology2019,3.0.5,None,
To what extent did the music make you feel ,ANGRY,30MonoWAV/30MonoS2.wav,1,1,3,10,,,,,1,13,29,9,0,11,11,2,,,,,,,,,1,0.950497452984564,,,121,001,2019_Oct_23_1626,MusicAffectPsychophysiology2019,3.0.5,None,
,,30MonoWAV/30MonoS2.wav,1,1,3,10,,,,,1,13,29,9,,,,,,,,,,,,,,,,,121,001,2019_Oct_23_1626,MusicAffectPsychophysiology2019,3.0.5,None,
To what extent did the music make you feel ,TENDER,30MonoWAV/30MonoS3.wav,1,1,3,11,,,,,1,14,30,10,0,0,0,10,,,1,3.667349221999757,3,1.8696864160010591,3,1.1353635049890727,2,0.9594763579661958,,,121,001,2019_Oct_23_1626,MusicAffectPsychophysiology2019,3.0.5,None,
To what extent did the music make you feel ,ANGRY,30MonoWAV/30MonoS3.wav,1,1,3,11,,,,,1,14,30,10,0,1,1,2,,,,,,,,,1,0.6010249070241116,,,121,001,2019_Oct_23_1626,MusicAffectPsychophysiology2019,3.0.5,None,
To what extent did the music make you feel ,ALERT,30MonoWAV/30MonoS3.wav,1,1,3,11,,,,,1,14,30,10,0,2,2,8,,,,,,,,,1,1.5336219809832983,,,121,001,2019_Oct_23_1626,MusicAffectPsychophysiology2019,3.0.5,None,
To what extent did the music make you feel ,GUILTY,30MonoWAV/30MonoS3.wav,1,1,3,11,,,,,1,14,30,10,0,3,3,5,,,,,,,,,1,0.6521687940112315,,,121,001,2019_Oct_23_1626,MusicAffectPsychophysiology2019,3.0.5,None,
To what extent did the music make you feel ,SAD,30MonoWAV/30MonoS3.wav,1,1,3,11,,,,,1,14,30,10,0,4,4,0,,,,,,,,,1,0.49964842799818143,,,121,001,2019_Oct_23_1626,MusicAffectPsychophysiology2019,3.0.5,None,
To what extent did the music make you feel ,ACTIVE,30MonoWAV/30MonoS3.wav,1,1,3,11,,,,,1,14,30,10,0,5,5,9,,,,,,,,,1,0.8865034349728376,,,121,001,2019_Oct_23_1626,MusicAffectPsychophysiology2019,3.0.5,None,
To what extent did the music make you feel ,HAPPY,30MonoWAV/30MonoS3.wav,1,1,3,11,,,,,1,14,30,10,0,6,6,6,,,,,,,,,2,1.30169614701299,,,121,001,2019_Oct_23_1626,MusicAffectPsychophysiology2019,3.0.5,None,
To what extent did the music make you feel ,EXCITED,30MonoWAV/30MonoS3.wav,1,1,3,11,,,,,1,14,30,10,0,7,7,7,,,,,,,,,1,1.0197310580406338,,,121,001,2019_Oct_23_1626,MusicAffectPsychophysiology2019,3.0.5,None,
To what extent did the music make you feel ,ASHAMED,30MonoWAV/30MonoS3.wav,1,1,3,11,,,,,1,14,30,10,0,8,8,4,,,,,,,,,1,0.533743427018635,,,121,001,2019_Oct_23_1626,MusicAffectPsychophysiology2019,3.0.5,None,
To what extent did the music make you feel ,ANXIOUS ,30MonoWAV/30MonoS3.wav,1,1,3,11,,,,,1,14,30,10,0,9,9,1,,,,,,,,,1,0.8338140869745985,,,121,001,2019_Oct_23_1626,MusicAffectPsychophysiology2019,3.0.5,None,
To what extent did the music make you feel ,SCARED,30MonoWAV/30MonoS3.wav,1,1,3,11,,,,,1,14,30,10,0,10,10,11,,,,,,,,,1,0.5504456130438484,,,121,001,2019_Oct_23_1626,MusicAffectPsychophysiology2019,3.0.5,None,
To what extent did the music make you feel ,FRUSTRATED,30MonoWAV/30MonoS3.wav,1,1,3,11,,,,,1,14,30,10,0,11,11,3,,,,,,,,,1,0.48648557503474876,,,121,001,2019_Oct_23_1626,MusicAffectPsychophysiology2019,3.0.5,None,
,,30MonoWAV/30MonoS3.wav,1,1,3,11,,,,,1,14,30,10,,,,,,,,,,,,,,,,,121,001,2019_Oct_23_1626,MusicAffectPsychophysiology2019,3.0.5,None,
To what extent did the music make you feel ,EXCITED,30MonoWAV/30MonoF4.wav,1,2,2,4,,,,,1,15,31,3,0,0,0,7,,,3,3.8528242469765246,2,2.117967851983849,2,1.334432718984317,1,2.033950903976802,,,121,001,2019_Oct_23_1626,MusicAffectPsychophysiology2019,3.0.5,None,
To what extent did the music make you feel ,SAD,30MonoWAV/30MonoF4.wav,1,2,2,4,,,,,1,15,31,3,0,1,1,0,,,,,,,,,1,0.6520106270327233,,,121,001,2019_Oct_23_1626,MusicAffectPsychophysiology2019,3.0.5,None,
To what extent did the music make you feel ,ASHAMED,30MonoWAV/30MonoF4.wav,1,2,2,4,,,,,1,15,31,3,0,2,2,4,,,,,,,,,1,0.5028399029979482,,,121,001,2019_Oct_23_1626,MusicAffectPsychophysiology2019,3.0.5,None,
To what extent did the music make you feel ,GUILTY,30MonoWAV/30MonoF4.wav,1,2,2,4,,,,,1,15,31,3,0,3,3,5,,,,,,,,,1,0.5199630609713495,,,121,001,2019_Oct_23_1626,MusicAffectPsychophysiology2019,3.0.5,None,
To what extent did the music make you feel ,ANGRY,30MonoWAV/30MonoF4.wav,1,2,2,4,,,,,1,15,31,3,0,4,4,2,,,,,,,,,1,0.6691196669708006,,,121,001,2019_Oct_23_1626,MusicAffectPsychophysiology2019,3.0.5,None,
To what extent did the music make you feel ,ACTIVE,30MonoWAV/30MonoF4.wav,1,2,2,4,,,,,1,15,31,3,0,5,5,9,,,,,,,,,2,2.051932892994955,,,121,001,2019_Oct_23_1626,MusicAffectPsychophysiology2019,3.0.5,None,
To what extent did the music make you feel ,HAPPY,30MonoWAV/30MonoF4.wav,1,2,2,4,,,,,1,15,31,3,0,6,6,6,,,,,,,,,1,1.285782177990768,,,121,001,2019_Oct_23_1626,MusicAffectPsychophysiology2019,3.0.5,None,
To what extent did the music make you feel ,FRUSTRATED,30MonoWAV/30MonoF4.wav,1,2,2,4,,,,,1,15,31,3,0,7,7,3,,,,,,,,,2,1.4337193290120922,,,121,001,2019_Oct_23_1626,MusicAffectPsychophysiology2019,3.0.5,None,
To what extent did the music make you feel ,TENDER,30MonoWAV/30MonoF4.wav,1,2,2,4,,,,,1,15,31,3,0,8,8,10,,,,,,,,,2,1.035815725044813,,,121,001,2019_Oct_23_1626,MusicAffectPsychophysiology2019,3.0.5,None,
To what extent did the music make you feel ,ANXIOUS ,30MonoWAV/30MonoF4.wav,1,2,2,4,,,,,1,15,31,3,0,9,9,1,,,,,,,,,1,1.3182647150242701,,,121,001,2019_Oct_23_1626,MusicAffectPsychophysiology2019,3.0.5,None,
To what extent did the music make you feel ,SCARED,30MonoWAV/30MonoF4.wav,1,2,2,4,,,,,1,15,31,3,0,10,10,11,,,,,,,,,1,0.970265137962997,,,121,001,2019_Oct_23_1626,MusicAffectPsychophysiology2019,3.0.5,None,
To what extent did the music make you feel ,ALERT,30MonoWAV/30MonoF4.wav,1,2,2,4,,,,,1,15,31,3,0,11,11,8,,,,,,,,,3,2.952167258015834,,,121,001,2019_Oct_23_1626,MusicAffectPsychophysiology2019,3.0.5,None,
,,30MonoWAV/30MonoF4.wav,1,2,2,4,,,,,1,15,31,3,,,,,,,,,,,,,,,,,121,001,2019_Oct_23_1626,MusicAffectPsychophysiology2019,3.0.5,None,
,,,,,,,,,,,,,,,,,,,,,,,,,,,,,space,6.268529448017944,121,001,2019_Oct_23_1626,MusicAffectPsychophysiology2019,3.0.5,None,
